Theta [deg.]  Phi   [deg.]  Abs(Dir.)[      ]   Abs(Theta)[      ]  Phase(Theta)[deg.]  Abs(Phi  )[      ]  Phase(Phi  )[deg.]  Ax.Ratio[      ]    
------------------------------------------------------------------------------------------------------------------------------------------------------
-180.000         -90.000            9.746e-04           1.047e-07              60.361           9.745e-04             136.515           9.937e+01     
-179.000         -90.000            3.661e-03           2.739e-03             274.823           9.212e-04             134.360           3.319e+00     
-178.000         -90.000            1.129e-02           1.051e-02             274.887           7.859e-04             127.139           7.226e+00     
-177.000         -90.000            2.253e-02           2.189e-02             275.107           6.426e-04             112.974           1.953e+01     
-176.000         -90.000            3.542e-02           3.481e-02             275.467           6.017e-04              90.782           9.471e+01     
-175.000         -90.000            4.774e-02           4.695e-02             275.995           7.933e-04              65.973           1.557e+01     
-174.000         -90.000            5.746e-02           5.611e-02             276.739           1.346e-03              46.715           8.509e+00     
-173.000         -90.000            6.306e-02           6.069e-02             277.778           2.368e-03              34.051           5.690e+00     
-172.000         -90.000            6.386e-02           5.994e-02             279.242           3.926e-03              25.625           4.095e+00     
-171.000         -90.000            6.012e-02           5.408e-02             281.345           6.034e-03              19.585           3.033e+00     
-170.000         -90.000            5.297e-02           4.432e-02             284.473           8.648e-03              14.879           2.264e+00     
-169.000         -90.000            4.421e-02           3.254e-02             289.364           1.166e-02              10.924           1.709e+00     
-168.000         -90.000            3.598e-02           2.105e-02             297.591           1.493e-02               7.389           1.493e+00     
-167.000         -90.000            3.034e-02           1.209e-02             312.668           1.825e-02               4.072           2.148e+00     
-166.000         -90.000            2.891e-02           7.477e-03             340.380           2.143e-02               0.844           6.375e+00     
-165.000         -90.000            3.255e-02           8.276e-03              15.709           2.428e-02             357.616           7.257e+00     
-164.000         -90.000            4.121e-02           1.461e-02              40.134           2.660e-02             354.321           2.518e+00     
-163.000         -90.000            5.392e-02           2.565e-02              53.433           2.827e-02             350.909           1.651e+00     
