Theta [deg.]  Phi   [deg.]  Abs(Dir.)[      ]   Abs(Theta)[      ]  Phase(Theta)[deg.]  Abs(Phi  )[      ]  Phase(Phi  )[deg.]  Ax.Ratio[      ]    
------------------------------------------------------------------------------------------------------------------------------------------------------
-180.000         -90.000            6.013e-04           3.014e-08              69.169           6.013e-04              81.076           3.162e+02     
-179.000         -90.000            3.894e-03           3.293e-03             218.208           6.012e-04              80.649           3.841e+00     
-178.000         -90.000            1.301e-02           1.241e-02             218.438           6.016e-04              79.410           7.122e+00     
-177.000         -90.000            2.575e-02           2.515e-02             218.785           6.017e-04              77.388           1.051e+01     
-176.000         -90.000            3.904e-02           3.844e-02             219.310           6.006e-04              74.618           1.399e+01     
-175.000         -90.000            4.972e-02           4.912e-02             220.082           5.968e-04              71.131           1.775e+01     
-174.000         -90.000            5.527e-02           5.469e-02             221.213           5.887e-04              66.938           2.240e+01     
-173.000         -90.000            5.448e-02           5.391e-02             222.889           5.749e-04              62.012           2.984e+01     
-172.000         -90.000            4.769e-02           4.714e-02             225.438           5.547e-04              56.281           4.956e+01     
-171.000         -90.000            3.671e-02           3.618e-02             229.521           5.283e-04              49.607           3.162e+02     
-170.000         -90.000            2.437e-02           2.387e-02             236.562           4.979e-04              41.802           2.771e+01     
-169.000         -90.000            1.383e-02           1.337e-02             250.004           4.677e-04              32.644           9.007e+00     
-168.000         -90.000            7.812e-03           7.368e-03             277.114           4.441e-04              21.960           4.232e+00     
-167.000         -90.000            7.913e-03           7.478e-03             316.132           4.352e-04               9.780           5.256e+00     
-166.000         -90.000            1.427e-02           1.382e-02             343.076           4.506e-04             356.516           2.456e+01     
-165.000         -90.000            2.550e-02           2.500e-02             356.660           4.996e-04             342.993           3.050e+01     
-164.000         -90.000            3.909e-02           3.850e-02               4.125           5.905e-04             330.158           1.461e+01     
-163.000         -90.000            5.197e-02           5.124e-02               8.940           7.290e-04             318.677           1.097e+01     
