Theta [deg.]  Phi   [deg.]  Abs(Dir.)[      ]   Abs(Theta)[      ]  Phase(Theta)[deg.]  Abs(Phi  )[      ]  Phase(Phi  )[deg.]  Ax.Ratio[      ]    
------------------------------------------------------------------------------------------------------------------------------------------------------
-180.000         -90.000            9.509e-04           1.528e-07              31.453           9.508e-04             145.601           8.644e+01     
-179.000         -90.000            5.942e-03           4.954e-03             191.323           9.882e-04             144.268           3.372e+00     
-178.000         -90.000            1.839e-02           1.728e-02             191.512           1.108e-03             140.506           5.216e+00     
-177.000         -90.000            3.174e-02           3.042e-02             191.794           1.318e-03             135.207           5.833e+00     
-176.000         -90.000            3.906e-02           3.743e-02             192.288           1.624e-03             129.299           5.439e+00     
-175.000         -90.000            3.664e-02           3.463e-02             193.194           2.006e-03             123.383           4.459e+00     
-174.000         -90.000            2.597e-02           2.356e-02             195.024           2.418e-03             117.666           3.216e+00     
-173.000         -90.000            1.290e-02           1.012e-02             199.629           2.782e-03             112.071           1.911e+00     
-172.000         -90.000            4.443e-03           1.436e-03             222.143           3.007e-03             106.358           1.827e+00     
-171.000         -90.000            5.071e-03           2.059e-03             339.856           3.012e-03             100.152           1.804e+00     
-170.000         -90.000            1.439e-02           1.163e-02             357.282           2.762e-03              92.885           2.068e+00     
-169.000         -90.000            2.742e-02           2.513e-02               2.055           2.290e-03              83.604           3.356e+00     
-168.000         -90.000            3.730e-02           3.559e-02               5.072           1.713e-03              70.555           5.053e+00     
-167.000         -90.000            3.897e-02           3.775e-02               8.285           1.216e-03              50.680           8.413e+00     
-166.000         -90.000            3.183e-02           3.081e-02              13.098           1.014e-03              21.687           3.810e+01     
-165.000         -90.000            2.010e-02           1.880e-02              22.258           1.299e-03             350.575           7.611e+00     
-164.000         -90.000            1.060e-02           8.419e-03              44.157           2.181e-03             327.528           2.056e+00     
-163.000         -90.000            9.222e-03           5.583e-03              93.372           3.639e-03             312.343           2.909e+00     
