Theta [deg.]  Phi   [deg.]  Abs(Dir.)[      ]   Abs(Theta)[      ]  Phase(Theta)[deg.]  Abs(Phi  )[      ]  Phase(Phi  )[deg.]  Ax.Ratio[      ]    
------------------------------------------------------------------------------------------------------------------------------------------------------
-180.000         -90.000            1.841e-03           1.023e-06             331.267           1.840e-03             334.820           3.162e+02     
-179.000         -90.000            7.744e-03           5.905e-03             301.126           1.839e-03             334.151           4.066e+00     
-178.000         -90.000            2.263e-02           2.080e-02             301.103           1.835e-03             332.176           6.955e+00     
-177.000         -90.000            4.006e-02           3.823e-02             301.372           1.828e-03             328.995           1.024e+01     
-176.000         -90.000            5.248e-02           5.066e-02             301.931           1.814e-03             324.767           1.403e+01     
-175.000         -90.000            5.457e-02           5.279e-02             302.944           1.788e-03             319.647           1.949e+01     
-174.000         -90.000            4.554e-02           4.379e-02             304.811           1.743e-03             313.766           3.345e+01     
-173.000         -90.000            2.940e-02           2.773e-02             308.579           1.669e-03             307.197           1.791e+02     
-172.000         -90.000            1.324e-02           1.168e-02             317.990           1.561e-03             299.910           9.888e+00     
-171.000         -90.000            4.111e-03           2.692e-03             354.943           1.419e-03             291.760           1.802e+00     
-170.000         -90.000            5.992e-03           4.744e-03              72.154           1.249e-03             282.470           4.663e+00     
-169.000         -90.000            1.810e-02           1.704e-02              93.769           1.069e-03             271.637           1.140e+02     
-168.000         -90.000            3.530e-02           3.440e-02             100.906           9.027e-04             258.802           1.678e+01     
-167.000         -90.000            5.033e-02           4.955e-02             104.805           7.753e-04             243.676           1.226e+01     
-166.000         -90.000            5.695e-02           5.624e-02             108.008           7.064e-04             226.628           1.019e+01     
-165.000         -90.000            5.261e-02           5.190e-02             111.776           7.045e-04             208.986           8.654e+00     
-164.000         -90.000            3.948e-02           3.872e-02             117.596           7.622e-04             192.476           7.393e+00     
-163.000         -90.000            2.355e-02           2.269e-02             128.682           8.568e-04             178.158           6.880e+00     
