Theta [deg.]  Phi   [deg.]  Abs(Dir.)[      ]   Abs(Theta)[      ]  Phase(Theta)[deg.]  Abs(Phi  )[      ]  Phase(Phi  )[deg.]  Ax.Ratio[      ]    
------------------------------------------------------------------------------------------------------------------------------------------------------
-180.000         -90.000            7.980e-04           1.912e-06              84.280           7.961e-04              19.616           2.258e+01     
-179.000         -90.000            7.642e-03           6.836e-03             279.449           8.062e-04              19.506           2.969e+00     
-178.000         -90.000            2.437e-02           2.354e-02             279.726           8.322e-04              19.068           5.395e+00     
-177.000         -90.000            4.070e-02           3.983e-02             280.478           8.657e-04              18.165           6.848e+00     
-176.000         -90.000            4.667e-02           4.577e-02             281.918           8.932e-04              16.619           7.184e+00     
-175.000         -90.000            3.878e-02           3.788e-02             284.705           8.988e-04              14.239           6.492e+00     
-174.000         -90.000            2.215e-02           2.128e-02             290.902           8.680e-04              10.819           5.036e+00     
-173.000         -90.000            7.332e-03           6.539e-03             310.283           7.931e-04               6.111           3.615e+00     
-172.000         -90.000            3.754e-03           3.078e-03              25.363           6.768e-04             359.765           5.850e+00     
-171.000         -90.000            1.396e-02           1.342e-02              66.981           5.336e-04             351.226           5.188e+00     
-170.000         -90.000            3.207e-02           3.168e-02              77.927           3.862e-04             339.532           9.158e+00     
-169.000         -90.000            4.743e-02           4.717e-02              83.358           2.597e-04             323.038           1.564e+01     
-168.000         -90.000            5.114e-02           5.096e-02              87.880           1.744e-04             299.430           3.275e+01     
-167.000         -90.000            4.138e-02           4.124e-02              93.712           1.418e-04             268.396           1.847e+02     
-166.000         -90.000            2.446e-02           2.430e-02             104.307           1.627e-04             236.378           1.651e+01     
-165.000         -90.000            1.081e-02           1.058e-02             129.712           2.295e-04             210.059           6.890e+00     
-164.000         -90.000            8.692e-03           8.362e-03             181.222           3.291e-04             189.388           3.686e+01     
-163.000         -90.000            1.930e-02           1.885e-02             215.703           4.457e-04             172.156           9.557e+00     
