Theta [deg.]  Phi   [deg.]  Abs(Dir.)[      ]   Abs(Theta)[      ]  Phase(Theta)[deg.]  Abs(Phi  )[      ]  Phase(Phi  )[deg.]  Ax.Ratio[      ]    
------------------------------------------------------------------------------------------------------------------------------------------------------
-180.000         -90.000            8.184e-03           1.532e-06             351.236           8.182e-03              66.357           7.562e+01     
-179.000         -90.000            1.349e-02           5.671e-03             183.844           7.818e-03              65.433           1.723e+00     
-178.000         -90.000            2.629e-02           1.935e-02             183.994           6.939e-03              62.575           2.205e+00     
-177.000         -90.000            3.799e-02           3.223e-02             184.472           5.755e-03              57.486           3.177e+00     
-176.000         -90.000            4.057e-02           3.604e-02             185.450           4.526e-03              49.706           4.320e+00     
-175.000         -90.000            3.186e-02           2.837e-02             187.490           3.486e-03              38.790           6.000e+00     
-174.000         -90.000            1.704e-02           1.427e-02             192.556           2.773e-03              24.836           1.266e+01     
-173.000         -90.000            5.436e-03           3.030e-03             213.182           2.407e-03               9.197           4.742e+00     
-172.000         -90.000            4.558e-03           2.257e-03             314.077           2.301e-03             354.247           2.735e+00     
-171.000         -90.000            1.532e-02           1.301e-02             340.910           2.313e-03             341.850           1.702e+02     
-170.000         -90.000            3.133e-02           2.902e-02             346.922           2.304e-03             332.577           1.540e+01     
-169.000         -90.000            4.275e-02           4.057e-02             349.538           2.183e-03             326.294           1.142e+01     
-168.000         -90.000            4.241e-02           4.048e-02             351.376           1.929e-03             322.853           9.951e+00     
-167.000         -90.000            3.026e-02           2.868e-02             353.684           1.585e-03             322.423           8.533e+00     
-166.000         -90.000            1.354e-02           1.231e-02             358.902           1.232e-03             325.565           6.166e+00     
-165.000         -90.000            2.546e-03           1.594e-03              26.865           9.525e-04             332.890           2.073e+00     
-164.000         -90.000            4.497e-03           3.697e-03             139.619           7.999e-04             343.903           6.197e+00     
-163.000         -90.000            1.928e-02           1.850e-02             154.524           7.810e-04             355.766           1.393e+01     
