Theta [deg.]  Phi   [deg.]  Abs(Dir.)[      ]   Abs(Theta)[      ]  Phase(Theta)[deg.]  Abs(Phi  )[      ]  Phase(Phi  )[deg.]  Ax.Ratio[      ]    
------------------------------------------------------------------------------------------------------------------------------------------------------
-180.000         -90.000            7.235e-03           7.980e-08             224.392           7.235e-03             275.054           3.162e+02     
-179.000         -90.000            1.181e-02           4.288e-03             233.436           7.520e-03             271.816           3.018e+00     
-178.000         -90.000            2.184e-02           1.325e-02             233.828           8.590e-03             263.196           3.919e+00     
-177.000         -90.000            2.979e-02           1.887e-02             234.623           1.092e-02             252.001           6.802e+00     
-176.000         -90.000            3.095e-02           1.611e-02             236.274           1.484e-02             241.077           2.386e+01     
-175.000         -90.000            2.763e-02           7.462e-03             240.500           2.017e-02             231.732           1.471e+01     
-174.000         -90.000            2.677e-02           7.776e-04             265.417           2.599e-02             223.944           8.878e+00     
-173.000         -90.000            3.317e-02           2.322e-03              32.761           3.085e-02             217.229           5.029e+01     
-172.000         -90.000            4.445e-02           1.119e-02              45.007           3.327e-02             211.070           9.461e+00     
-171.000         -90.000            5.238e-02           2.003e-02              49.943           3.234e-02             205.013           4.667e+00     
-170.000         -90.000            4.971e-02           2.154e-02              55.130           2.816e-02             198.622           3.066e+00     
-169.000         -90.000            3.667e-02           1.486e-02              64.146           2.181e-02             191.374           2.077e+00     
-168.000         -90.000            2.129e-02           6.359e-03              86.764           1.493e-02             182.504           1.551e+00     
-167.000         -90.000            1.312e-02           4.057e-03             144.110           9.060e-03             170.783           4.602e+00     
-166.000         -90.000            1.559e-02           1.051e-02             184.619           5.085e-03             154.441           3.993e+00     
-165.000         -90.000            2.351e-02           2.050e-02             199.865           3.010e-03             132.662           2.902e+00     
-164.000         -90.000            2.776e-02           2.555e-02             208.985           2.214e-03             109.795           3.450e+00     
-163.000         -90.000            2.332e-02           2.139e-02             218.683           1.932e-03              93.683           4.190e+00     
