Theta [deg.]  Phi   [deg.]  Abs(Dir.)[      ]   Abs(Theta)[      ]  Phase(Theta)[deg.]  Abs(Phi  )[      ]  Phase(Phi  )[deg.]  Ax.Ratio[      ]    
------------------------------------------------------------------------------------------------------------------------------------------------------
-180.000         -90.000            8.504e-02           2.681e-08              20.649           8.504e-02             129.437           3.162e+02     
-179.000         -90.000            8.563e-02           1.774e-03             205.417           8.386e-02             129.032           7.083e+00     
-178.000         -90.000            8.717e-02           6.723e-03             205.528           8.044e-02             127.800           3.554e+00     
-177.000         -90.000            8.888e-02           1.374e-02             205.740           7.515e-02             125.692           2.390e+00     
-176.000         -90.000            8.973e-02           2.123e-02             206.074           6.850e-02             122.624           1.818e+00     
-175.000         -90.000            8.866e-02           2.752e-02             206.568           6.114e-02             118.487           1.493e+00     
-174.000         -90.000            8.493e-02           3.117e-02             207.291           5.376e-02             113.153           1.326e+00     
-173.000         -90.000            7.836e-02           3.136e-02             208.360           4.700e-02             106.519           1.338e+00     
-172.000         -90.000            6.941e-02           2.804e-02             209.984           4.137e-02              98.557           1.540e+00     
-171.000         -90.000            5.920e-02           2.198e-02             212.582           3.722e-02              89.406           1.964e+00     
-170.000         -90.000            4.931e-02           1.461e-02             217.101           3.470e-02              79.423           2.909e+00     
-169.000         -90.000            4.146e-02           7.719e-03             226.168           3.374e-02              69.152           6.423e+00     
-168.000         -90.000            3.718e-02           3.082e-03             248.868           3.410e-02              59.166           2.148e+01     
-167.000         -90.000            3.749e-02           2.076e-03             301.815           3.541e-02              49.890           4.370e+00     
-166.000         -90.000            4.259e-02           5.375e-03             340.257           3.722e-02              41.517           3.113e+00     
-165.000         -90.000            5.184e-02           1.279e-02             354.689           3.905e-02              34.046           3.361e+00     
-164.000         -90.000            6.377e-02           2.328e-02               1.403           4.049e-02              27.363           4.524e+00     
-163.000         -90.000            7.636e-02           3.514e-02               5.350           4.121e-02              21.306           7.159e+00     
