Theta [deg.]  Phi   [deg.]  Abs(Dir.)[      ]   Abs(Theta)[      ]  Phase(Theta)[deg.]  Abs(Phi  )[      ]  Phase(Phi  )[deg.]  Ax.Ratio[      ]    
------------------------------------------------------------------------------------------------------------------------------------------------------
-180.000         -90.000            3.225e-04           4.458e-07             316.138           3.220e-04             120.281           9.849e+01     
-179.000         -90.000            2.698e-03           2.358e-03              71.892           3.406e-04             119.932           3.785e+00     
-178.000         -90.000            8.766e-03           8.367e-03              72.509           3.992e-04             118.946           6.465e+00     
-177.000         -90.000            1.569e-02           1.518e-02              73.123           5.011e-04             117.401           8.021e+00     
-176.000         -90.000            2.025e-02           1.960e-02              74.034           6.487e-04             115.358           8.482e+00     
-175.000         -90.000            2.041e-02           1.957e-02              75.539           8.398e-04             112.837           8.187e+00     
-174.000         -90.000            1.625e-02           1.519e-02              78.262           1.064e-03             109.822           7.592e+00     
-173.000         -90.000            9.898e-03           8.594e-03              83.961           1.304e-03             106.262           7.662e+00     
-172.000         -90.000            4.508e-03           2.974e-03              99.928           1.534e-03             102.102           5.562e+01     
-171.000         -90.000            2.737e-03           1.007e-03             161.658           1.730e-03              97.277           1.717e+00     
-170.000         -90.000            5.485e-03           3.616e-03             214.150           1.869e-03              91.686           2.001e+00     
-169.000         -90.000            1.149e-02           9.551e-03             227.880           1.937e-03              85.243           4.160e+00     
-168.000         -90.000            1.795e-02           1.602e-02             233.699           1.935e-03              77.850           7.753e+00     
-167.000         -90.000            2.189e-02           2.002e-02             237.529           1.871e-03              69.416           1.731e+01     
-166.000         -90.000            2.152e-02           1.976e-02             241.266           1.763e-03              59.866           1.493e+02     
-165.000         -90.000            1.711e-02           1.548e-02             246.384           1.633e-03              49.170           1.141e+01     
-164.000         -90.000            1.079e-02           9.292e-03             255.582           1.499e-03              37.365           4.448e+00     
-163.000         -90.000            5.570e-03           4.192e-03             276.662           1.378e-03              24.574           1.913e+00     
