Theta [deg.]  Phi   [deg.]  Abs(Dir.)[      ]   Abs(Theta)[      ]  Phase(Theta)[deg.]  Abs(Phi  )[      ]  Phase(Phi  )[deg.]  Ax.Ratio[      ]    
------------------------------------------------------------------------------------------------------------------------------------------------------
-180.000         -90.000            6.485e-04           8.238e-09             228.185           6.485e-04             359.017           3.162e+02     
-179.000         -90.000            4.017e-03           3.370e-03             303.583           6.468e-04             358.641           2.984e+00     
-178.000         -90.000            1.266e-02           1.202e-02             303.808           6.413e-04             357.513           5.476e+00     
-177.000         -90.000            2.286e-02           2.223e-02             304.177           6.319e-04             355.590           7.674e+00     
-176.000         -90.000            3.024e-02           2.962e-02             304.798           6.183e-04             352.804           9.401e+00     
-175.000         -90.000            3.165e-02           3.105e-02             305.858           6.011e-04             349.065           1.061e+01     
-174.000         -90.000            2.655e-02           2.597e-02             307.747           5.814e-04             344.282           1.139e+01     
-173.000         -90.000            1.721e-02           1.665e-02             311.479           5.610e-04             338.370           1.237e+01     
-172.000         -90.000            7.719e-03           7.175e-03             320.575           5.432e-04             331.294           2.097e+01     
-171.000         -90.000            2.220e-03           1.689e-03             355.141           5.311e-04             323.106           4.180e+00     
-170.000         -90.000            3.115e-03           2.586e-03              73.314           5.283e-04             313.974           2.684e+00     
-169.000         -90.000            1.006e-02           9.519e-03              96.550           5.371e-04             304.185           9.482e+00     
-168.000         -90.000            2.012e-02           1.956e-02             104.141           5.583e-04             294.097           3.519e+01     
-167.000         -90.000            2.908e-02           2.849e-02             108.321           5.903e-04             284.041           9.502e+01     
-166.000         -90.000            3.325e-02           3.262e-02             111.797           6.294e-04             274.258           2.431e+01     
-165.000         -90.000            3.102e-02           3.035e-02             115.898           6.704e-04             264.856           1.326e+01     
-164.000         -90.000            2.358e-02           2.287e-02             122.191           7.069e-04             255.842           7.979e+00     
-163.000         -90.000            1.442e-02           1.368e-02             133.996           7.333e-04             247.151           4.739e+00     
