Theta [deg.]  Phi   [deg.]  Abs(Dir.)[      ]   Abs(Theta)[      ]  Phase(Theta)[deg.]  Abs(Phi  )[      ]  Phase(Phi  )[deg.]  Ax.Ratio[      ]    
------------------------------------------------------------------------------------------------------------------------------------------------------
-180.000         -90.000            4.602e-03           2.908e-07             323.554           4.602e-03             195.291           1.602e+02     
-179.000         -90.000            7.175e-03           2.694e-03             269.162           4.480e-03             196.740           1.499e+00     
-178.000         -90.000            1.300e-02           8.822e-03             269.120           4.181e-03             201.191           1.733e+00     
-177.000         -90.000            1.795e-02           1.408e-02             269.432           3.868e-03             208.592           2.362e+00     
-176.000         -90.000            1.851e-02           1.478e-02             270.174           3.726e-03             218.243           2.812e+00     
-175.000         -90.000            1.432e-02           1.044e-02             271.852           3.873e-03             228.430           2.934e+00     
-174.000         -90.000            8.436e-03           4.135e-03             276.532           4.302e-03             237.097           2.791e+00     
-173.000         -90.000            5.205e-03           3.265e-04             310.595           4.878e-03             243.029           4.225e+00     
-172.000         -90.000            7.179e-03           1.788e-03              68.442           5.391e-03             246.049           5.535e+01     
-171.000         -90.000            1.330e-02           7.665e-03              78.629           5.636e-03             246.488           9.517e+00     
-170.000         -90.000            1.957e-02           1.408e-02              82.515           5.489e-03             244.750           7.156e+00     
-169.000         -90.000            2.176e-02           1.682e-02              86.056           4.943e-03             241.156           5.486e+00     
-168.000         -90.000            1.834e-02           1.424e-02              91.379           4.099e-03             235.950           3.883e+00     
-167.000         -90.000            1.151e-02           8.399e-03             102.231           3.115e-03             229.367           2.408e+00     
-166.000         -90.000            5.757e-03           3.611e-03             130.471           2.147e-03             221.751           1.298e+00     
-165.000         -90.000            4.786e-03           3.479e-03             184.394           1.307e-03             213.801           4.341e+00     
-164.000         -90.000            9.065e-03           8.407e-03             214.960           6.572e-04             207.210           2.856e+01     
-163.000         -90.000            1.554e-02           1.531e-02             227.090           2.289e-04             207.734           2.500e+01     
