Theta [deg.]  Phi   [deg.]  Abs(Dir.)[      ]   Abs(Theta)[      ]  Phase(Theta)[deg.]  Abs(Phi  )[      ]  Phase(Phi  )[deg.]  Ax.Ratio[      ]    
------------------------------------------------------------------------------------------------------------------------------------------------------
-180.000         -90.000            3.340e-04           4.702e-07              36.356           3.335e-04             221.414           3.025e+02     
-179.000         -90.000            2.701e-03           2.352e-03             131.607           3.493e-04             221.094           2.595e+00     
-178.000         -90.000            8.734e-03           8.335e-03             132.312           3.988e-04             220.123           4.575e+00     
-177.000         -90.000            1.568e-02           1.520e-02             133.009           4.835e-04             218.547           5.624e+00     
-176.000         -90.000            2.040e-02           1.980e-02             134.030           6.034e-04             216.403           5.782e+00     
-175.000         -90.000            2.082e-02           2.007e-02             135.693           7.548e-04             213.701           5.280e+00     
-174.000         -90.000            1.690e-02           1.597e-02             138.643           9.284e-04             210.429           4.392e+00     
-173.000         -90.000            1.059e-02           9.484e-03             144.615           1.110e-03             206.538           3.408e+00     
-172.000         -90.000            4.975e-03           3.694e-03             160.108           1.281e-03             201.982           3.104e+00     
-171.000         -90.000            2.759e-03           1.334e-03             212.245           1.425e-03             196.702           7.331e+00     
-170.000         -90.000            5.062e-03           3.534e-03             266.527           1.529e-03             190.641           1.634e+00     
-169.000         -90.000            1.090e-02           9.317e-03             283.114           1.585e-03             183.749           2.471e+00     
-168.000         -90.000            1.767e-02           1.607e-02             289.959           1.594e-03             175.989           3.538e+00     
-167.000         -90.000            2.233e-02           2.077e-02             294.160           1.561e-03             167.352           4.685e+00     
-166.000         -90.000            2.285e-02           2.135e-02             297.875           1.496e-03             157.850           6.129e+00     
-165.000         -90.000            1.905e-02           1.764e-02             302.502           1.409e-03             147.519           8.924e+00     
-164.000         -90.000            1.272e-02           1.141e-02             310.160           1.307e-03             136.398           3.027e+01     
-163.000         -90.000            6.748e-03           5.549e-03             326.417           1.199e-03             124.506           6.865e+00     
