Theta [deg.]  Phi   [deg.]  Abs(Dir.)[      ]   Abs(Theta)[      ]  Phase(Theta)[deg.]  Abs(Phi  )[      ]  Phase(Phi  )[deg.]  Ax.Ratio[      ]    
------------------------------------------------------------------------------------------------------------------------------------------------------
-180.000         -90.000            2.922e-03           3.568e-08             179.583           2.921e-03              83.055           2.880e+02     
-179.000         -90.000            5.459e-03           2.558e-03              98.191           2.901e-03              82.341           7.198e+00     
-178.000         -90.000            1.201e-02           9.165e-03              98.334           2.846e-03              80.244           7.439e+00     
-177.000         -90.000            1.985e-02           1.708e-02              98.774           2.764e-03              76.828           7.597e+00     
-176.000         -90.000            2.570e-02           2.304e-02              99.569           2.665e-03              72.210           6.995e+00     
-175.000         -90.000            2.714e-02           2.458e-02             100.934           2.559e-03              66.554           5.891e+00     
-174.000         -90.000            2.357e-02           2.112e-02             103.346           2.449e-03              60.064           4.561e+00     
-173.000         -90.000            1.652e-02           1.418e-02             107.996           2.334e-03              52.945           3.189e+00     
-172.000         -90.000            9.004e-03           6.799e-03             118.728           2.205e-03              45.377           1.901e+00     
-171.000         -90.000            4.340e-03           2.289e-03             151.702           2.051e-03              37.457           1.553e+00     
-170.000         -90.000            4.753e-03           2.888e-03             214.737           1.865e-03              29.179           2.110e+01     
-169.000         -90.000            1.047e-02           8.831e-03             241.096           1.642e-03              20.417           3.967e+00     
-168.000         -90.000            1.962e-02           1.823e-02             250.360           1.390e-03              10.895           4.291e+00     
-167.000         -90.000            2.890e-02           2.778e-02             254.914           1.125e-03               0.148           5.164e+00     
-166.000         -90.000            3.492e-02           3.405e-02             257.915           8.707e-04             347.441           6.254e+00     
-165.000         -90.000            3.547e-02           3.481e-02             260.586           6.550e-04             331.733           7.719e+00     
-164.000         -90.000            3.035e-02           2.985e-02             263.814           5.045e-04             311.950           1.041e+01     
-163.000         -90.000            2.149e-02           2.105e-02             268.844           4.390e-04             288.260           2.122e+01     
