Theta [deg.]  Phi   [deg.]  Abs(Dir.)[      ]   Abs(Theta)[      ]  Phase(Theta)[deg.]  Abs(Phi  )[      ]  Phase(Phi  )[deg.]  Ax.Ratio[      ]    
------------------------------------------------------------------------------------------------------------------------------------------------------
-180.000         -90.000            4.833e-04           1.799e-07              79.672           4.831e-04             136.659           6.182e+01     
-179.000         -90.000            2.353e-03           1.852e-03             143.132           5.010e-04             134.897           1.699e+01     
-178.000         -90.000            6.874e-03           6.315e-03             143.641           5.595e-04             129.896           1.533e+01     
-177.000         -90.000            1.149e-02           1.082e-02             144.235           6.694e-04             122.760           1.157e+01     
-176.000         -90.000            1.361e-02           1.276e-02             145.210           8.423e-04             114.727           8.056e+00     
-175.000         -90.000            1.210e-02           1.102e-02             147.014           1.082e-03             106.660           5.221e+00     
-174.000         -90.000            7.986e-03           6.606e-03             150.905           1.380e-03              98.893           3.026e+00     
-173.000         -90.000            3.850e-03           2.142e-03             162.699           1.708e-03              91.381           1.421e+00     
-172.000         -90.000            2.432e-03           4.049e-04             235.643           2.027e-03              83.906           5.487e+00     
-171.000         -90.000            5.055e-03           2.762e-03             295.942           2.293e-03              76.182           2.781e+00     
-170.000         -90.000            1.084e-02           8.375e-03             306.471           2.470e-03              67.904           2.373e+00     
-169.000         -90.000            1.715e-02           1.461e-02             310.855           2.542e-03              58.763           2.568e+00     
-168.000         -90.000            2.095e-02           1.843e-02             314.041           2.519e-03              48.477           2.715e+00     
-167.000         -90.000            2.045e-02           1.801e-02             317.624           2.439e-03              36.847           2.782e+00     
-166.000         -90.000            1.606e-02           1.371e-02             323.152           2.347e-03              23.871           2.900e+00     
-165.000         -90.000            1.014e-02           7.856e-03             333.941           2.288e-03               9.856           3.817e+00     
-164.000         -90.000            5.807e-03           3.526e-03             359.690           2.281e-03             355.404           2.736e+01     
-163.000         -90.000            5.259e-03           2.945e-03              48.682           2.313e-03             341.196           1.525e+00     
