Theta [deg.]  Phi   [deg.]  Abs(Dir.)[      ]   Abs(Theta)[      ]  Phase(Theta)[deg.]  Abs(Phi  )[      ]  Phase(Phi  )[deg.]  Ax.Ratio[      ]    
------------------------------------------------------------------------------------------------------------------------------------------------------
-180.000         -90.000            1.338e-02           2.916e-08             227.897           1.338e-02              99.380           3.162e+02     
-179.000         -90.000            1.839e-02           5.220e-03             243.158           1.317e-02              98.966           3.506e+00     
-178.000         -90.000            3.228e-02           1.970e-02             243.295           1.258e-02              97.720           3.327e+00     
-177.000         -90.000            5.193e-02           4.029e-02             243.515           1.165e-02              95.597           4.280e+00     
-176.000         -90.000            7.298e-02           6.251e-02             243.854           1.047e-02              92.522           5.774e+00     
-175.000         -90.000            9.070e-02           8.156e-02             244.357           9.131e-03              88.377           8.040e+00     
-174.000         -90.000            1.011e-01           9.335e-02             245.098           7.754e-03              82.998           1.214e+01     
-173.000         -90.000            1.018e-01           9.539e-02             246.196           6.434e-03              76.171           2.369e+01     
-172.000         -90.000            9.261e-02           8.735e-02             247.855           5.261e-03              67.633           3.162e+02     
-171.000         -90.000            7.544e-02           7.114e-02             250.462           4.302e-03              57.144           1.867e+01     
-170.000         -90.000            5.409e-02           5.049e-02             254.825           3.599e-03              44.590           7.841e+00     
-169.000         -90.000            3.332e-02           3.015e-02             262.870           3.170e-03              30.226           4.040e+00     
-168.000         -90.000            1.789e-02           1.487e-02             279.849           3.013e-03              14.821           2.234e+00     
-167.000         -90.000            1.151e-02           8.398e-03             316.357           3.107e-03             359.487           2.956e+00     
-166.000         -90.000            1.608e-02           1.266e-02             357.709           3.420e-03             345.188           1.118e+01     
-165.000         -90.000            3.127e-02           2.737e-02              18.772           3.908e-03             332.393           3.922e+00     
-164.000         -90.000            5.458e-02           5.005e-02              28.658           4.526e-03             321.135           3.650e+00     
-163.000         -90.000            8.183e-02           7.661e-02              34.169           5.221e-03             311.221           3.864e+00     
