Theta [deg.]  Phi   [deg.]  Abs(Dir.)[      ]   Abs(Theta)[      ]  Phase(Theta)[deg.]  Abs(Phi  )[      ]  Phase(Phi  )[deg.]  Ax.Ratio[      ]    
------------------------------------------------------------------------------------------------------------------------------------------------------
-180.000         -90.000            2.207e-03           3.691e-08             167.314           2.207e-03             104.878           2.758e+02     
-179.000         -90.000            6.615e-03           4.400e-03              95.379           2.215e-03             103.728           1.452e+01     
-178.000         -90.000            1.892e-02           1.667e-02              95.365           2.250e-03             100.317           3.576e+01     
-177.000         -90.000            3.658e-02           3.425e-02              95.439           2.336e-03              94.865           3.162e+02     
-176.000         -90.000            5.599e-02           5.348e-02              95.585           2.508e-03              87.800           3.567e+01     
-175.000         -90.000            7.318e-02           7.037e-02              95.823           2.808e-03              79.749           1.875e+01     
-174.000         -90.000            8.469e-02           8.142e-02              96.192           3.276e-03              71.408           1.229e+01     
-173.000         -90.000            8.829e-02           8.435e-02              96.760           3.942e-03              63.347           8.677e+00     
-172.000         -90.000            8.341e-02           7.859e-02              97.643           4.823e-03              55.892           6.275e+00     
-171.000         -90.000            7.131e-02           6.540e-02              99.052           5.914e-03              49.142           4.518e+00     
-170.000         -90.000            5.475e-02           4.756e-02             101.430           7.188e-03              43.042           3.161e+00     
-169.000         -90.000            3.748e-02           2.888e-02             105.835           8.601e-03              37.474           2.077e+00     
-168.000         -90.000            2.344e-02           1.335e-02             115.507           1.009e-02              32.302           1.202e+00     
-167.000         -90.000            1.596e-02           4.378e-03             143.727           1.158e-02              27.402           2.001e+00     
-166.000         -90.000            1.706e-02           4.067e-03             206.739           1.300e-02              22.663           3.299e+01     
-165.000         -90.000            2.709e-02           1.282e-02             237.845           1.426e-02              17.992           2.764e+00     
-164.000         -90.000            4.459e-02           2.927e-02             248.448           1.532e-02              13.312           2.087e+00     
-163.000         -90.000            6.664e-02           5.052e-02             253.416           1.612e-02               8.554           2.105e+00     
