Theta [deg.]  Phi   [deg.]  Abs(Dir.)[      ]   Abs(Theta)[      ]  Phase(Theta)[deg.]  Abs(Phi  )[      ]  Phase(Phi  )[deg.]  Ax.Ratio[      ]    
------------------------------------------------------------------------------------------------------------------------------------------------------
-180.000         -90.000            2.069e-02           9.606e-08             265.228           2.069e-02              30.988           3.162e+02     
-179.000         -90.000            2.497e-02           4.609e-03             332.032           2.036e-02              30.364           2.651e+00     
-178.000         -90.000            3.616e-02           1.677e-02             332.305           1.939e-02              28.460           1.883e+00     
-177.000         -90.000            5.012e-02           3.218e-02             332.627           1.793e-02              25.195           2.165e+00     
-176.000         -90.000            6.163e-02           4.542e-02             333.111           1.620e-02              20.448           2.722e+00     
-175.000         -90.000            6.633e-02           5.189e-02             333.862           1.444e-02              14.096           3.463e+00     
-174.000         -90.000            6.232e-02           4.943e-02             335.068           1.289e-02               6.098           4.571e+00     
-173.000         -90.000            5.079e-02           3.906e-02             337.116           1.173e-02             356.604           6.968e+00     
-172.000         -90.000            3.561e-02           2.452e-02             340.959           1.108e-02             346.061           2.424e+01     
-171.000         -90.000            2.188e-02           1.093e-02             349.705           1.094e-02             335.160           7.836e+00     
-170.000         -90.000            1.412e-02           2.891e-03              18.861           1.123e-02             324.618           2.681e+00     
-169.000         -90.000            1.467e-02           2.889e-03              93.420           1.178e-02             314.921           3.510e+00     
-168.000         -90.000            2.285e-02           1.047e-02             122.306           1.238e-02             306.241           2.921e+01     
-167.000         -90.000            3.532e-02           2.250e-02             131.462           1.282e-02             298.513           9.171e+00     
-166.000         -90.000            4.727e-02           3.436e-02             136.154           1.291e-02             291.541           5.196e+00     
-165.000         -90.000            5.421e-02           4.167e-02             139.614           1.254e-02             285.090           3.930e+00     
-164.000         -90.000            5.355e-02           4.188e-02             143.118           1.167e-02             278.911           3.157e+00     
-163.000         -90.000            4.548e-02           3.511e-02             147.735           1.036e-02             272.752           2.513e+00     
