Theta [deg.]  Phi   [deg.]  Abs(Dir.)[      ]   Abs(Theta)[      ]  Phase(Theta)[deg.]  Abs(Phi  )[      ]  Phase(Phi  )[deg.]  Ax.Ratio[      ]    
------------------------------------------------------------------------------------------------------------------------------------------------------
-180.000         -90.000            5.164e-04           6.691e-07              98.841           5.158e-04             188.838           2.776e+01     
-179.000         -90.000            2.761e-03           2.252e-03              18.043           5.088e-04             184.471           1.090e+01     
-178.000         -90.000            7.946e-03           7.432e-03              18.059           5.146e-04             172.278           9.234e+00     
-177.000         -90.000            1.256e-02           1.198e-02              18.937           5.825e-04             155.705           6.796e+00     
-176.000         -90.000            1.354e-02           1.282e-02              20.851           7.221e-04             139.640           4.872e+00     
-175.000         -90.000            1.032e-02           9.453e-03              24.859           8.646e-04             126.191           3.385e+00     
-174.000         -90.000            5.219e-03           4.327e-03              34.912           8.923e-04             114.363           2.259e+00     
-173.000         -90.000            1.796e-03           1.067e-03              73.749           7.293e-04             101.481           4.134e+00     
-172.000         -90.000            2.409e-03           1.973e-03             149.030           4.366e-04              81.765           2.398e+00     
-171.000         -90.000            6.671e-03           6.436e-03             170.784           2.355e-04              39.577           7.061e+00     
-170.000         -90.000            1.182e-02           1.139e-02             179.036           4.229e-04             344.421           2.129e+01     
-169.000         -90.000            1.470e-02           1.349e-02             184.967           1.212e-03             316.942           4.678e+00     
-168.000         -90.000            1.400e-02           1.141e-02             192.179           2.587e-03             302.427           2.314e+00     
-167.000         -90.000            1.110e-02           6.823e-03             205.285           4.279e-03             291.794           1.273e+00     
-166.000         -90.000            9.121e-03           3.252e-03             236.436           5.869e-03             282.075           2.524e+00     
-165.000         -90.000            1.067e-02           3.675e-03             287.195           6.996e-03             271.961           7.882e+00     
-164.000         -90.000            1.600e-02           8.484e-03             315.438           7.516e-03             260.699           1.938e+00     
-163.000         -90.000            2.269e-02           1.515e-02             327.778           7.536e-03             247.897           1.482e+00     
