Theta [deg.]  Phi   [deg.]  Abs(Dir.)[      ]   Abs(Theta)[      ]  Phase(Theta)[deg.]  Abs(Phi  )[      ]  Phase(Phi  )[deg.]  Ax.Ratio[      ]    
------------------------------------------------------------------------------------------------------------------------------------------------------
-180.000         -90.000            1.250e-03           2.605e-06             143.652           1.247e-03             145.387           3.162e+02     
-179.000         -90.000            7.992e-03           6.747e-03             249.498           1.246e-03             144.042           2.453e+00     
-178.000         -90.000            2.490e-02           2.367e-02             250.342           1.235e-03             140.078           4.696e+00     
-177.000         -90.000            4.333e-02           4.210e-02             251.097           1.228e-03             133.909           6.625e+00     
-176.000         -90.000            5.389e-02           5.266e-02             252.198           1.233e-03             126.237           8.140e+00     
-175.000         -90.000            5.127e-02           5.003e-02             254.072           1.248e-03             117.916           9.261e+00     
-174.000         -90.000            3.700e-02           3.574e-02             257.682           1.252e-03             109.711           1.033e+01     
-173.000         -90.000            1.863e-02           1.742e-02             266.132           1.212e-03             102.069           1.470e+01     
-172.000         -90.000            5.946e-03           4.852e-03             295.030           1.095e-03              95.132           7.447e+00     
-171.000         -90.000            5.943e-03           5.057e-03               9.734           8.858e-04              88.806           2.452e+00     
-170.000         -90.000            1.926e-02           1.866e-02              38.085           6.044e-04              82.826           8.024e+00     
-169.000         -90.000            3.983e-02           3.953e-02              46.764           3.067e-04              76.579           2.297e+01     
-168.000         -90.000            5.789e-02           5.781e-02              51.031           7.697e-05              67.509           9.674e+01     
-167.000         -90.000            6.481e-02           6.481e-02              54.173           3.877e-06             295.474           1.474e+02     
-166.000         -90.000            5.741e-02           5.726e-02              57.668           1.522e-04             254.013           6.909e+01     
-165.000         -90.000            3.948e-02           3.895e-02              63.252           5.380e-04             246.819           1.387e+02     
-164.000         -90.000            2.001e-02           1.890e-02              75.364           1.116e-03             241.538           1.818e+01     
-163.000         -90.000            8.810e-03           7.024e-03             110.126           1.786e-03             236.704           2.731e+00     
