Theta [deg.]  Phi   [deg.]  Abs(Dir.)[      ]   Abs(Theta)[      ]  Phase(Theta)[deg.]  Abs(Phi  )[      ]  Phase(Phi  )[deg.]  Ax.Ratio[      ]    
------------------------------------------------------------------------------------------------------------------------------------------------------
-180.000         -90.000            5.830e-03           1.491e-07              99.234           5.830e-03              68.625           3.162e+02     
-179.000         -90.000            1.008e-02           4.105e-03             316.663           5.979e-03              69.410           1.570e+00     
-178.000         -90.000            2.044e-02           1.402e-02             316.868           6.425e-03              71.503           1.821e+00     
-177.000         -90.000            3.094e-02           2.379e-02             317.463           7.156e-03              74.354           2.206e+00     
-176.000         -90.000            3.567e-02           2.755e-02             318.637           8.116e-03              77.339           2.281e+00     
-175.000         -90.000            3.227e-02           2.310e-02             320.969           9.172e-03              79.974           2.046e+00     
-174.000         -90.000            2.332e-02           1.321e-02             326.283           1.012e-02              81.992           1.624e+00     
-173.000         -90.000            1.475e-02           4.059e-03             343.313           1.070e-02              83.304           1.678e+00     
-172.000         -90.000            1.225e-02           1.564e-03              59.908           1.069e-02              83.931           7.222e+00     
-171.000         -90.000            1.781e-02           7.849e-03             104.288           9.959e-03              83.952           5.618e+00     
-170.000         -90.000            2.846e-02           1.992e-02             114.389           8.542e-03              83.481           3.998e+00     
-169.000         -90.000            3.795e-02           3.132e-02             118.668           6.624e-03              82.683           4.248e+00     
-168.000         -90.000            4.029e-02           3.578e-02             121.565           4.514e-03              81.859           4.752e+00     
-167.000         -90.000            3.339e-02           3.083e-02             124.740           2.564e-03              81.692           5.314e+00     
-166.000         -90.000            2.030e-02           1.922e-02             130.136           1.080e-03              84.347           6.052e+00     
-165.000         -90.000            7.726e-03           7.472e-03             143.863           2.540e-04             101.146           8.144e+00     
-164.000         -90.000            2.352e-03           2.216e-03             196.864           1.369e-04             178.705           1.363e+01     
-163.000         -90.000            7.246e-03           6.596e-03             256.727           6.503e-04             208.574           4.473e+00     
