Theta [deg.]  Phi   [deg.]  Abs(Dir.)[      ]   Abs(Theta)[      ]  Phase(Theta)[deg.]  Abs(Phi  )[      ]  Phase(Phi  )[deg.]  Ax.Ratio[      ]    
------------------------------------------------------------------------------------------------------------------------------------------------------
-180.000         -90.000            3.958e-04           2.842e-07             355.251           3.955e-04             298.607           4.467e+01     
-179.000         -90.000            3.056e-03           2.656e-03              21.589           4.006e-04             297.614           2.594e+00     
-178.000         -90.000            9.850e-03           9.435e-03              21.961           4.151e-04             294.711           4.774e+00     
-177.000         -90.000            1.799e-02           1.755e-02              22.456           4.398e-04             290.242           6.322e+00     
-176.000         -90.000            2.415e-02           2.367e-02              23.242           4.747e-04             284.677           7.145e+00     
-175.000         -90.000            2.583e-02           2.531e-02              24.538           5.176e-04             278.474           7.289e+00     
-174.000         -90.000            2.243e-02           2.186e-02              26.784           5.638e-04             271.968           6.893e+00     
-173.000         -90.000            1.543e-02           1.483e-02              31.045           6.055e-04             265.329           6.182e+00     
-172.000         -90.000            7.865e-03           7.231e-03              40.682           6.340e-04             258.553           5.812e+00     
-171.000         -90.000            2.993e-03           2.351e-03              70.102           6.418e-04             251.514           9.884e+01     
-170.000         -90.000            3.013e-03           2.389e-03             135.236           6.243e-04             243.986           2.138e+00     
-169.000         -90.000            8.140e-03           7.558e-03             164.732           5.825e-04             235.659           3.845e+00     
-168.000         -90.000            1.652e-02           1.600e-02             174.653           5.224e-04             226.143           7.163e+00     
-167.000         -90.000            2.496e-02           2.451e-02             179.455           4.548e-04             214.979           1.279e+01     
-166.000         -90.000            3.023e-02           2.984e-02             182.629           3.921e-04             201.751           2.694e+01     
-165.000         -90.000            3.031e-02           2.997e-02             185.522           3.465e-04             186.333           3.162e+02     
-164.000         -90.000            2.523e-02           2.490e-02             189.143           3.264e-04             169.278           2.600e+01     
-163.000         -90.000            1.699e-02           1.666e-02             195.049           3.348e-04             151.893           1.042e+01     
