Theta [deg.]  Phi   [deg.]  Abs(Dir.)[      ]   Abs(Theta)[      ]  Phase(Theta)[deg.]  Abs(Phi  )[      ]  Phase(Phi  )[deg.]  Ax.Ratio[      ]    
------------------------------------------------------------------------------------------------------------------------------------------------------
-180.000         -90.000            1.193e-02           1.437e-07             115.002           1.193e-02             214.309           2.919e+02     
-179.000         -90.000            1.449e-02           2.967e-03             202.408           1.153e-02             213.475           1.283e+01     
-178.000         -90.000            2.147e-02           1.107e-02             202.715           1.040e-02             210.876           1.402e+01     
-177.000         -90.000            3.090e-02           2.212e-02             202.980           8.775e-03             206.108           4.062e+01     
-176.000         -90.000            4.014e-02           3.317e-02             203.334           6.972e-03             198.394           3.062e+01     
-175.000         -90.000            4.659e-02           4.122e-02             203.853           5.370e-03             186.549           1.043e+01     
-174.000         -90.000            4.846e-02           4.412e-02             204.641           4.337e-03             169.532           5.922e+00     
-173.000         -90.000            4.526e-02           4.109e-02             205.879           4.171e-03             148.503           3.845e+00     
-172.000         -90.000            3.802e-02           3.297e-02             207.935           5.052e-03             127.960           2.608e+00     
-171.000         -90.000            2.901e-02           2.200e-02             211.633           7.010e-03             111.550           1.824e+00     
-170.000         -90.000            2.120e-02           1.127e-02             219.416           9.932e-03              99.410           1.739e+00     
-169.000         -90.000            1.749e-02           3.922e-03             240.983           1.357e-02              90.262           4.689e+00     
-168.000         -90.000            1.988e-02           2.303e-03             302.000           1.758e-02              82.957           4.751e+00     
-167.000         -90.000            2.897e-02           7.380e-03             342.372           2.159e-02              76.731           1.720e+00     
-166.000         -90.000            4.367e-02           1.846e-02             355.193           2.521e-02              71.096           1.342e+00     
-165.000         -90.000            6.147e-02           3.332e-02               0.855           2.815e-02              65.737           1.586e+00     
-164.000         -90.000            7.896e-02           4.878e-02               4.153           3.018e-02              60.436           1.965e+00     
-163.000         -90.000            9.262e-02           6.142e-02               6.599           3.120e-02              55.032           2.414e+00     
