Theta [deg.]  Phi   [deg.]  Abs(Dir.)[      ]   Abs(Theta)[      ]  Phase(Theta)[deg.]  Abs(Phi  )[      ]  Phase(Phi  )[deg.]  Ax.Ratio[      ]    
------------------------------------------------------------------------------------------------------------------------------------------------------
-180.000         -90.000            1.979e-03           2.855e-07             177.038           1.979e-03             116.039           9.518e+01     
-179.000         -90.000            4.064e-03           2.047e-03             194.564           2.017e-03             115.342           1.208e+00     
-178.000         -90.000            8.912e-03           6.781e-03             194.807           2.131e-03             113.361           1.822e+00     
-177.000         -90.000            1.345e-02           1.114e-02             195.129           2.307e-03             110.186           2.211e+00     
-176.000         -90.000            1.484e-02           1.232e-02             195.700           2.523e-03             105.896           2.210e+00     
-175.000         -90.000            1.230e-02           9.554e-03             196.840           2.747e-03             100.524           1.885e+00     
-174.000         -90.000            7.592e-03           4.646e-03             199.608           2.946e-03              94.039           1.432e+00     
-173.000         -90.000            3.872e-03           7.784e-04             211.749           3.094e-03              86.366           2.689e+00     
-172.000         -90.000            3.648e-03           4.698e-04             346.804           3.179e-03              77.415           2.601e+00     
-171.000         -90.000            7.170e-03           3.963e-03               4.687           3.207e-03              67.121           1.670e+00     
-170.000         -90.000            1.229e-02           9.087e-03               8.853           3.201e-03              55.501           2.773e+00     
-169.000         -90.000            1.586e-02           1.267e-02              11.828           3.191e-03              42.694           4.646e+00     
-168.000         -90.000            1.576e-02           1.255e-02              15.604           3.202e-03              28.987           1.064e+01     
-167.000         -90.000            1.223e-02           8.990e-03              22.247           3.242e-03              14.757           1.733e+01     
-166.000         -90.000            7.730e-03           4.430e-03              37.366           3.300e-03               0.388           3.031e+00     
-165.000         -90.000            5.320e-03           1.972e-03              78.437           3.348e-03             346.162           1.307e+00     
-164.000         -90.000            6.740e-03           3.400e-03             129.786           3.340e-03             332.219           5.043e+00     
-163.000         -90.000            1.130e-02           8.073e-03             151.004           3.230e-03             318.508           1.013e+01     
