Theta [deg.]  Phi   [deg.]  Abs(Dir.)[      ]   Abs(Theta)[      ]  Phase(Theta)[deg.]  Abs(Phi  )[      ]  Phase(Phi  )[deg.]  Ax.Ratio[      ]    
------------------------------------------------------------------------------------------------------------------------------------------------------
-180.000         -90.000            2.158e-02           4.277e-07               5.073           2.158e-02             158.555           3.162e+02     
-179.000         -90.000            2.770e-02           6.853e-03             299.785           2.085e-02             157.024           3.548e+00     
-178.000         -90.000            4.096e-02           2.197e-02             299.860           1.899e-02             152.645           3.410e+00     
-177.000         -90.000            5.018e-02           3.351e-02             300.410           1.667e-02             145.258           4.846e+00     
-176.000         -90.000            4.708e-02           3.244e-02             301.700           1.464e-02             134.938           9.327e+00     
-175.000         -90.000            3.309e-02           1.963e-02             304.901           1.346e-02             122.491           4.840e+01     
-174.000         -90.000            1.860e-02           5.321e-03             316.565           1.328e-02             109.576           4.661e+00     
-173.000         -90.000            1.500e-02           1.164e-03              56.082           1.384e-02              97.929           5.418e+00     
-172.000         -90.000            2.579e-02           1.118e-02              98.018           1.461e-02              88.485           1.210e+01     
-171.000         -90.000            4.350e-02           2.845e-02             104.491           1.505e-02              81.345           5.154e+00     
-170.000         -90.000            5.505e-02           4.025e-02             107.137           1.480e-02              76.250           4.153e+00     
-169.000         -90.000            5.142e-02           3.764e-02             109.228           1.379e-02              72.900           3.527e+00     
-168.000         -90.000            3.459e-02           2.241e-02             112.635           1.218e-02              71.057           2.798e+00     
-167.000         -90.000            1.629e-02           6.009e-03             124.016           1.028e-02              70.518           2.103e+00     
-166.000         -90.000            9.666e-03           1.272e-03             225.104           8.395e-03              70.999           6.623e+00     
-165.000         -90.000            1.974e-02           1.302e-02             266.576           6.721e-03              72.019           8.275e+00     
-164.000         -90.000            3.969e-02           3.436e-02             272.809           5.325e-03              72.802           8.457e+00     
-163.000         -90.000            5.555e-02           5.137e-02             275.455           4.179e-03              72.273           9.526e+00     
