Theta [deg.]  Phi   [deg.]  Abs(Dir.)[      ]   Abs(Theta)[      ]  Phase(Theta)[deg.]  Abs(Phi  )[      ]  Phase(Phi  )[deg.]  Ax.Ratio[      ]    
------------------------------------------------------------------------------------------------------------------------------------------------------
-180.000         -90.000            4.671e-04           7.017e-09             117.460           4.671e-04             252.309           3.162e+02     
-179.000         -90.000            3.164e-03           2.696e-03             108.131           4.684e-04             251.967           4.552e+00     
-178.000         -90.000            1.017e-02           9.703e-03             108.290           4.721e-04             250.938           7.706e+00     
-177.000         -90.000            1.873e-02           1.826e-02             108.606           4.775e-04             249.195           9.893e+00     
-176.000         -90.000            2.548e-02           2.500e-02             109.151           4.833e-04             246.695           1.077e+01     
-175.000         -90.000            2.779e-02           2.730e-02             110.070           4.884e-04             243.377           1.036e+01     
-174.000         -90.000            2.481e-02           2.432e-02             111.660           4.920e-04             239.177           8.931e+00     
-173.000         -90.000            1.778e-02           1.728e-02             114.622           4.937e-04             234.027           6.840e+00     
-172.000         -90.000            9.546e-03           9.051e-03             121.028           4.946e-04             227.884           4.492e+00     
-171.000         -90.000            3.403e-03           2.907e-03             139.825           4.966e-04             220.749           2.462e+00     
-170.000         -90.000            1.789e-03           1.287e-03             206.481           5.025e-04             212.708           2.047e+01     
-169.000         -90.000            5.334e-03           4.819e-03             251.059           5.154e-04             203.948           4.392e+00     
-168.000         -90.000            1.262e-02           1.209e-02             263.210           5.376e-04             194.754           5.129e+00     
-167.000         -90.000            2.078e-02           2.021e-02             268.493           5.700e-04             185.459           6.001e+00     
-166.000         -90.000            2.661e-02           2.600e-02             271.881           6.112e-04             176.372           6.554e+00     
-165.000         -90.000            2.786e-02           2.720e-02             274.990           6.576e-04             167.719           6.750e+00     
-164.000         -90.000            2.414e-02           2.343e-02             278.930           7.034e-04             159.619           6.668e+00     
-163.000         -90.000            1.704e-02           1.630e-02             285.362           7.418e-04             152.100           6.578e+00     
