Theta [deg.]  Phi   [deg.]  Abs(Dir.)[      ]   Abs(Theta)[      ]  Phase(Theta)[deg.]  Abs(Phi  )[      ]  Phase(Phi  )[deg.]  Ax.Ratio[      ]    
------------------------------------------------------------------------------------------------------------------------------------------------------
-180.000         -90.000            2.580e-03           1.646e-08             249.391           2.579e-03              70.148           3.162e+02     
-179.000         -90.000            6.172e-03           3.692e-03               7.638           2.480e-03              68.994           1.754e+00     
-178.000         -90.000            1.614e-02           1.394e-02               7.771           2.199e-03              65.356           3.134e+00     
-177.000         -90.000            3.022e-02           2.841e-02               7.903           1.810e-03              58.513           5.263e+00     
-176.000         -90.000            4.521e-02           4.379e-02               8.089           1.418e-03              47.129           8.996e+00     
-175.000         -90.000            5.773e-02           5.658e-02               8.369           1.151e-03              29.712           1.960e+01     
-174.000         -90.000            6.501e-02           6.387e-02               8.796           1.134e-03               7.168           2.689e+02     
-173.000         -90.000            6.550e-02           6.403e-02               9.456           1.473e-03             345.034           1.625e+01     
-172.000         -90.000            5.928e-02           5.704e-02              10.503           2.238e-03             327.899           7.619e+00     
-171.000         -90.000            4.801e-02           4.455e-02              12.237           3.454e-03             315.672           4.411e+00     
-170.000         -90.000            3.454e-02           2.945e-02              15.341           5.093e-03             306.683           2.651e+00     
-169.000         -90.000            2.235e-02           1.527e-02              21.734           7.079e-03             299.610           1.506e+00     
-168.000         -90.000            1.465e-02           5.352e-03              38.906           9.300e-03             293.637           1.475e+00     
-167.000         -90.000            1.376e-02           2.142e-03              96.009           1.162e-02             288.279           1.290e+01     
-166.000         -90.000            2.049e-02           6.619e-03             145.640           1.388e-02             283.238           2.816e+00     
-165.000         -90.000            3.403e-02           1.810e-02             160.277           1.594e-02             278.321           1.673e+00     
-164.000         -90.000            5.205e-02           3.437e-02             166.236           1.768e-02             273.398           1.575e+00     
-163.000         -90.000            7.122e-02           5.221e-02             169.502           1.900e-02             268.371           1.700e+00     
