Theta [deg.]  Phi   [deg.]  Abs(Dir.)[      ]   Abs(Theta)[      ]  Phase(Theta)[deg.]  Abs(Phi  )[      ]  Phase(Phi  )[deg.]  Ax.Ratio[      ]    
------------------------------------------------------------------------------------------------------------------------------------------------------
-180.000         -90.000            4.949e-05           3.140e-07               2.987           4.918e-05             295.662           1.358e+01     
-179.000         -90.000            2.524e-03           2.469e-03             198.191           5.426e-05             301.747           6.948e+00     
-178.000         -90.000            8.398e-03           8.320e-03             198.325           7.834e-05             315.430           1.160e+01     
-177.000         -90.000            1.376e-02           1.362e-02             198.765           1.410e-04             326.589           1.249e+01     
-176.000         -90.000            1.504e-02           1.478e-02             199.690           2.577e-04             331.076           1.017e+01     
-175.000         -90.000            1.143e-02           1.100e-02             201.699           4.301e-04             329.835           6.527e+00     
-174.000         -90.000            5.485e-03           4.835e-03             207.114           6.495e-04             324.251           3.162e+00     
-173.000         -90.000            1.542e-03           6.279e-04             237.387           9.144e-04             315.303           1.329e+00     
-172.000         -90.000            2.908e-03           1.663e-03             347.677           1.246e-03             303.928           2.527e+00     
-171.000         -90.000            9.682e-03           7.996e-03               2.525           1.686e-03             291.253           2.361e+00     
-170.000         -90.000            1.859e-02           1.631e-02               7.043           2.274e-03             278.386           2.679e+00     
-169.000         -90.000            2.496e-02           2.194e-02              10.064           3.016e-03             266.032           2.806e+00     
-168.000         -90.000            2.558e-02           2.173e-02              13.572           3.854e-03             254.378           2.852e+00     
-167.000         -90.000            2.068e-02           1.601e-02              19.430           4.678e-03             243.237           3.134e+00     
-166.000         -90.000            1.375e-02           8.392e-03              32.113           5.358e-03             232.263           5.780e+00     
-165.000         -90.000            9.360e-03           3.568e-03              65.668           5.792e-03             221.094           4.740e+00     
-164.000         -90.000            1.038e-02           4.437e-03             118.214           5.942e-03             209.441           1.159e+00     
-163.000         -90.000            1.623e-02           1.040e-02             143.731           5.834e-03             197.123           2.126e+00     
