Theta [deg.]  Phi   [deg.]  Abs(Dir.)[      ]   Abs(Theta)[      ]  Phase(Theta)[deg.]  Abs(Phi  )[      ]  Phase(Phi  )[deg.]  Ax.Ratio[      ]    
------------------------------------------------------------------------------------------------------------------------------------------------------
-180.000         -90.000            1.476e-02           9.522e-09             185.695           1.476e-02             351.684           3.162e+02     
-179.000         -90.000            1.984e-02           5.212e-03             338.470           1.463e-02             351.532           9.953e+00     
-178.000         -90.000            3.426e-02           2.002e-02             338.562           1.424e-02             351.078           9.255e+00     
-177.000         -90.000            5.559e-02           4.197e-02             338.681           1.362e-02             350.309           1.145e+01     
-176.000         -90.000            8.027e-02           6.747e-02             338.856           1.279e-02             349.207           1.514e+01     
-175.000         -90.000            1.041e-01           9.235e-02             339.110           1.179e-02             347.739           2.099e+01     
-174.000         -90.000            1.232e-01           1.126e-01             339.474           1.067e-02             345.862           3.193e+01     
-173.000         -90.000            1.343e-01           1.248e-01             339.995           9.481e-03             343.517           6.355e+01     
-172.000         -90.000            1.356e-01           1.273e-01             340.745           8.269e-03             340.624           3.162e+02     
-171.000         -90.000            1.268e-01           1.197e-01             341.836           7.086e-03             337.079           5.247e+01     
-170.000         -90.000            1.093e-01           1.033e-01             343.458           5.978e-03             332.750           2.363e+01     
-169.000         -90.000            8.605e-02           8.107e-02             345.966           4.984e-03             327.485           1.343e+01     
-168.000         -90.000            6.080e-02           5.667e-02             350.065           4.135e-03             321.118           8.083e+00     
-167.000         -90.000            3.765e-02           3.420e-02             357.361           3.450e-03             313.510           4.794e+00     
-166.000         -90.000            2.038e-02           1.744e-02              12.004           2.941e-03             304.665           2.715e+00     
-165.000         -90.000            1.180e-02           9.191e-03              43.095           2.607e-03             294.787           2.051e+00     
-164.000         -90.000            1.336e-02           1.092e-02              84.730           2.437e-03             284.372           7.570e+00     
-163.000         -90.000            2.492e-02           2.250e-02             109.395           2.415e-03             274.107           1.274e+01     
