Theta [deg.]  Phi   [deg.]  Abs(Dir.)[      ]   Abs(Theta)[      ]  Phase(Theta)[deg.]  Abs(Phi  )[      ]  Phase(Phi  )[deg.]  Ax.Ratio[      ]    
------------------------------------------------------------------------------------------------------------------------------------------------------
-180.000         -90.000            5.373e-05           1.016e-07             264.564           5.363e-05             134.676           2.996e+01     
-179.000         -90.000            2.995e-03           2.937e-03              23.609           5.753e-05             139.288           7.958e+00     
-178.000         -90.000            1.010e-02           1.002e-02              24.050           7.513e-05             150.049           1.431e+01     
-177.000         -90.000            1.714e-02           1.702e-02              24.686           1.186e-04             160.584           1.728e+01     
-176.000         -90.000            1.997e-02           1.977e-02              25.799           1.998e-04             166.833           1.591e+01     
-175.000         -90.000            1.698e-02           1.666e-02              27.914           3.234e-04             168.558           1.145e+01     
-174.000         -90.000            1.011e-02           9.623e-03              32.580           4.838e-04             166.684           6.366e+00     
-173.000         -90.000            3.641e-03           2.973e-03              47.103           6.682e-04             162.001           2.438e+00     
-172.000         -90.000            1.678e-03           8.146e-04             123.268           8.638e-04             155.015           3.519e+00     
-171.000         -90.000            5.668e-03           4.605e-03             174.271           1.064e-03             146.099           5.234e+00     
-170.000         -90.000            1.354e-02           1.227e-02             184.891           1.270e-03             135.620           4.294e+00     
-169.000         -90.000            2.094e-02           1.945e-02             189.705           1.490e-03             123.987           4.018e+00     
-168.000         -90.000            2.378e-02           2.205e-02             193.569           1.734e-03             111.649           3.608e+00     
-167.000         -90.000            2.068e-02           1.868e-02             198.545           2.004e-03              99.021           3.105e+00     
-166.000         -90.000            1.379e-02           1.150e-02             207.675           2.295e-03              86.428           2.781e+00     
-165.000         -90.000            7.590e-03           5.002e-03             230.153           2.588e-03              74.078           5.002e+00     
-164.000         -90.000            6.271e-03           3.417e-03             282.248           2.854e-03              62.085           2.750e+00     
-163.000         -90.000            1.132e-02           8.261e-03             320.419           3.057e-03              50.478           1.644e+00     
