Theta [deg.]  Phi   [deg.]  Abs(Dir.)[      ]   Abs(Theta)[      ]  Phase(Theta)[deg.]  Abs(Phi  )[      ]  Phase(Phi  )[deg.]  Ax.Ratio[      ]    
------------------------------------------------------------------------------------------------------------------------------------------------------
-180.000         -90.000            7.103e-03           1.307e-07             114.727           7.103e-03             212.303           2.352e+02     
-179.000         -90.000            1.291e-02           5.773e-03              71.189           7.140e-03             209.349           2.636e+00     
-178.000         -90.000            2.572e-02           1.830e-02              71.300           7.424e-03             201.020           2.463e+00     
-177.000         -90.000            3.571e-02           2.737e-02              71.727           8.342e-03             189.142           2.210e+00     
-176.000         -90.000            3.587e-02           2.566e-02              72.711           1.021e-02             176.496           1.690e+00     
-175.000         -90.000            2.768e-02           1.469e-02              75.183           1.299e-02             165.202           1.063e+00     
-174.000         -90.000            1.956e-02           3.397e-03              84.771           1.616e-02             155.862           2.368e+00     
-173.000         -90.000            1.954e-02           6.931e-04             205.171           1.884e-02             148.151           6.285e+00     
-172.000         -90.000            2.832e-02           8.152e-03             236.732           2.017e-02             141.527           1.588e+00     
-171.000         -90.000            3.855e-02           1.894e-02             241.797           1.961e-02             135.511           1.335e+00     
-170.000         -90.000            4.091e-02           2.372e-02             244.927           1.720e-02             129.722           1.623e+00     
-169.000         -90.000            3.202e-02           1.851e-02             249.328           1.352e-02             123.842           1.982e+00     
-168.000         -90.000            1.749e-02           8.047e-03             260.445           9.441e-03             117.554           2.991e+00     
-167.000         -90.000            7.666e-03           1.875e-03             311.686           5.792e-03             110.466           6.268e+00     
-166.000         -90.000            9.490e-03           6.407e-03              20.979           3.084e-03             102.003           1.491e+00     
-165.000         -90.000            2.092e-02           1.950e-02              35.865           1.421e-03              91.260           4.611e+00     
-164.000         -90.000            3.244e-02           3.185e-02              40.928           5.924e-04              77.249           1.253e+01     
-163.000         -90.000            3.443e-02           3.417e-02              43.938           2.628e-04              61.349           3.837e+01     
