Theta [deg.]  Phi   [deg.]  Abs(Dir.)[      ]   Abs(Theta)[      ]  Phase(Theta)[deg.]  Abs(Phi  )[      ]  Phase(Phi  )[deg.]  Ax.Ratio[      ]    
------------------------------------------------------------------------------------------------------------------------------------------------------
-180.000         -90.000            1.473e-03           5.285e-07             221.564           1.472e-03             288.013           5.758e+01     
-179.000         -90.000            5.423e-03           3.946e-03              22.566           1.477e-03             287.209           1.650e+00     
-178.000         -90.000            1.612e-02           1.463e-02              22.770           1.491e-03             284.879           3.170e+00     
-177.000         -90.000            3.000e-02           2.849e-02              22.991           1.518e-03             281.180           4.436e+00     
-176.000         -90.000            4.245e-02           4.089e-02              23.326           1.563e-03             276.358           5.366e+00     
-175.000         -90.000            4.936e-02           4.773e-02              23.870           1.628e-03             270.718           5.921e+00     
-174.000         -90.000            4.849e-02           4.678e-02              24.781           1.710e-03             264.573           6.109e+00     
-173.000         -90.000            4.022e-02           3.842e-02              26.373           1.803e-03             258.182           5.981e+00     
-172.000         -90.000            2.742e-02           2.552e-02              29.412           1.895e-03             251.731           5.680e+00     
-171.000         -90.000            1.443e-02           1.246e-02              36.226           1.969e-03             245.305           5.822e+00     
-170.000         -90.000            5.656e-03           3.644e-03              57.600           2.011e-03             238.908           9.153e+01     
-169.000         -90.000            4.069e-03           2.061e-03             129.821           2.008e-03             232.485           1.250e+00     
-168.000         -90.000            1.024e-02           8.284e-03             168.011           1.952e-03             225.936           2.623e+00     
-167.000         -90.000            2.215e-02           2.030e-02             178.369           1.843e-03             219.133           5.359e+00     
-166.000         -90.000            3.591e-02           3.422e-02             182.822           1.689e-03             211.919           9.609e+00     
-165.000         -90.000            4.702e-02           4.552e-02             185.489           1.505e-03             204.122           1.773e+01     
-164.000         -90.000            5.188e-02           5.057e-02             187.678           1.309e-03             195.559           4.648e+01     
-163.000         -90.000            4.894e-02           4.782e-02             190.137           1.120e-03             186.072           9.434e+01     
