Theta [deg.]  Phi   [deg.]  Abs(Dir.)[      ]   Abs(Theta)[      ]  Phase(Theta)[deg.]  Abs(Phi  )[      ]  Phase(Phi  )[deg.]  Ax.Ratio[      ]    
------------------------------------------------------------------------------------------------------------------------------------------------------
-180.000         -90.000            1.524e-04           4.888e-09              98.140           1.524e-04              69.178           3.162e+02     
-179.000         -90.000            2.778e-03           2.627e-03             288.022           1.512e-04              68.883           6.839e+00     
-178.000         -90.000            9.946e-03           9.798e-03             288.190           1.473e-04              68.031           1.276e+01     
-177.000         -90.000            1.968e-02           1.954e-02             288.507           1.409e-04              66.575           1.769e+01     
-176.000         -90.000            2.932e-02           2.919e-02             289.015           1.321e-04              64.433           2.123e+01     
-175.000         -90.000            3.626e-02           3.614e-02             289.793           1.210e-04              61.473           2.317e+01     
-174.000         -90.000            3.867e-02           3.856e-02             290.977           1.081e-04              57.493           2.352e+01     
-173.000         -90.000            3.600e-02           3.591e-02             292.810           9.416e-05              52.205           2.243e+01     
-172.000         -90.000            2.912e-02           2.904e-02             295.764           8.012e-05              45.182           2.019e+01     
-171.000         -90.000            2.002e-02           1.996e-02             300.873           6.734e-05              35.886           1.728e+01     
-170.000         -90.000            1.130e-02           1.124e-02             310.720           5.742e-05              23.775           1.463e+01     
-169.000         -90.000            5.356e-03           5.304e-03             332.431           5.207e-05               8.742           1.715e+01     
-168.000         -90.000            3.776e-03           3.723e-03              14.629           5.299e-05             351.793           2.186e+01     
-167.000         -90.000            6.898e-03           6.836e-03              50.223           6.164e-05             335.010           1.090e+01     
-166.000         -90.000            1.374e-02           1.366e-02              66.692           7.903e-05             320.210           1.372e+01     
-165.000         -90.000            2.232e-02           2.222e-02              74.792           1.055e-04             307.953           1.816e+01     
-164.000         -90.000            3.022e-02           3.008e-02              79.631           1.408e-04             297.913           2.366e+01     
-163.000         -90.000            3.524e-02           3.506e-02              83.147           1.838e-04             289.510           3.123e+01     
