Theta [deg.]  Phi   [deg.]  Abs(Dir.)[      ]   Abs(Theta)[      ]  Phase(Theta)[deg.]  Abs(Phi  )[      ]  Phase(Phi  )[deg.]  Ax.Ratio[      ]    
------------------------------------------------------------------------------------------------------------------------------------------------------
-180.000         -90.000            2.571e-03           1.198e-07             314.636           2.571e-03              42.254           1.466e+02     
-179.000         -90.000            5.823e-03           3.351e-03             215.437           2.472e-03              40.807           2.157e+01     
-178.000         -90.000            1.497e-02           1.277e-02             215.422           2.205e-03              36.120           2.315e+02     
-177.000         -90.000            2.832e-02           2.645e-02             215.605           1.864e-03              27.329           2.798e+01     
-176.000         -90.000            4.338e-02           4.179e-02             215.937           1.585e-03              13.279           1.376e+01     
-175.000         -90.000            5.742e-02           5.588e-02             216.439           1.531e-03             354.106           9.107e+00     
-174.000         -90.000            6.793e-02           6.607e-02             217.160           1.866e-03             333.525           6.679e+00     
-173.000         -90.000            7.322e-02           7.049e-02             218.181           2.730e-03             316.288           5.137e+00     
-172.000         -90.000            7.261e-02           6.839e-02             219.642           4.214e-03             303.666           4.054e+00     
-171.000         -90.000            6.665e-02           6.030e-02             221.779           6.349e-03             294.569           3.259e+00     
-170.000         -90.000            5.700e-02           4.790e-02             225.035           9.094e-03             287.728           2.704e+00     
-169.000         -90.000            4.602e-02           3.369e-02             230.289           1.234e-02             282.264           2.459e+00     
-168.000         -90.000            3.641e-02           2.050e-02             239.539           1.591e-02             277.635           2.926e+00     
-167.000         -90.000            3.061e-02           1.101e-02             257.520           1.960e-02             273.505           7.432e+00     
-166.000         -90.000            3.035e-02           7.189e-03             290.842           2.316e-02             269.661           6.352e+00     
-165.000         -90.000            3.633e-02           9.964e-03             326.767           2.637e-02             265.960           2.089e+00     
-164.000         -90.000            4.807e-02           1.906e-02             347.577           2.901e-02             262.304           1.253e+00     
-163.000         -90.000            6.398e-02           3.306e-02             358.439           3.092e-02             258.617           1.192e+00     
