Theta [deg.]  Phi   [deg.]  Abs(Dir.)[      ]   Abs(Theta)[      ]  Phase(Theta)[deg.]  Abs(Phi  )[      ]  Phase(Phi  )[deg.]  Ax.Ratio[      ]    
------------------------------------------------------------------------------------------------------------------------------------------------------
-180.000         -90.000            2.391e-04           1.316e-08             262.297           2.390e-04             259.804           3.162e+02     
-179.000         -90.000            3.053e-03           2.815e-03              73.317           2.385e-04             259.465           3.477e+01     
-178.000         -90.000            1.080e-02           1.056e-02              73.513           2.367e-04             258.495           7.862e+01     
-177.000         -90.000            2.149e-02           2.126e-02              73.851           2.333e-04             256.888           1.821e+02     
-176.000         -90.000            3.241e-02           3.218e-02              74.380           2.277e-04             254.625           3.162e+02     
-175.000         -90.000            4.080e-02           4.058e-02              75.172           2.192e-04             251.659           2.233e+02     
-174.000         -90.000            4.461e-02           4.440e-02              76.351           2.072e-04             247.900           1.001e+02     
-173.000         -90.000            4.297e-02           4.277e-02              78.128           1.916e-04             243.188           5.819e+01     
-172.000         -90.000            3.645e-02           3.627e-02              80.887           1.728e-04             237.271           3.631e+01     
-171.000         -90.000            2.686e-02           2.671e-02              85.430           1.520e-04             229.748           2.281e+01     
-170.000         -90.000            1.679e-02           1.666e-02              93.566           1.315e-04             220.078           1.404e+01     
-169.000         -90.000            8.895e-03           8.780e-03             109.838           1.147e-04             207.664           8.834e+00     
-168.000         -90.000            5.236e-03           5.131e-03             142.494           1.057e-04             192.271           9.205e+00     
-167.000         -90.000            6.742e-03           6.633e-03             181.361           1.092e-04             174.799           6.932e+01     
-166.000         -90.000            1.300e-02           1.287e-02             203.762           1.298e-04             157.429           1.383e+01     
-165.000         -90.000            2.237e-02           2.220e-02             214.856           1.713e-04             142.217           1.193e+01     
-164.000         -90.000            3.245e-02           3.221e-02             221.188           2.364e-04             129.857           1.168e+01     
-163.000         -90.000            4.068e-02           4.036e-02             225.481           3.255e-04             120.014           1.156e+01     
