Theta [deg.]  Phi   [deg.]  Abs(Dir.)[      ]   Abs(Theta)[      ]  Phase(Theta)[deg.]  Abs(Phi  )[      ]  Phase(Phi  )[deg.]  Ax.Ratio[      ]    
------------------------------------------------------------------------------------------------------------------------------------------------------
-180.000         -90.000            1.617e-03           2.787e-08             319.059           1.617e-03              25.612           2.625e+02     
-179.000         -90.000            6.639e-03           5.001e-03             208.592           1.637e-03              25.808           4.773e+01     
-178.000         -90.000            1.893e-02           1.723e-02             208.786           1.696e-03              26.280           8.007e+01     
-177.000         -90.000            3.168e-02           2.989e-02             209.278           1.783e-03              26.806           1.006e+02     
-176.000         -90.000            3.784e-02           3.595e-02             210.221           1.884e-03              27.096           8.434e+01     
-175.000         -90.000            3.407e-02           3.210e-02             212.032           1.973e-03              26.857           4.744e+01     
-174.000         -90.000            2.261e-02           2.058e-02             215.889           2.024e-03              25.828           2.000e+01     
-173.000         -90.000            1.001e-02           8.002e-03             226.457           2.009e-03              23.764           6.313e+00     
-172.000         -90.000            3.560e-03           1.647e-03             276.262           1.913e-03              20.413           1.298e+00     
-171.000         -90.000            7.212e-03           5.474e-03             349.055           1.738e-03              15.459           5.060e+00     
-170.000         -90.000            1.938e-02           1.788e-02               4.659           1.507e-03               8.478           5.606e+01     
-169.000         -90.000            3.379e-02           3.253e-02              10.208           1.260e-03             358.932           2.696e+01     
-168.000         -90.000            4.279e-02           4.174e-02              13.557           1.044e-03             346.319           1.409e+01     
-167.000         -90.000            4.159e-02           4.069e-02              16.823           8.998e-04             330.638           9.419e+00     
-166.000         -90.000            3.085e-02           3.000e-02              21.695           8.494e-04             313.052           6.406e+00     
-165.000         -90.000            1.646e-02           1.557e-02              31.915           8.875e-04             295.681           4.216e+00     
-164.000         -90.000            6.459e-03           5.475e-03              61.976           9.837e-04             280.180           4.266e+00     
-163.000         -90.000            6.931e-03           5.839e-03             124.718           1.092e-03             266.915           4.242e+00     
