Theta [deg.]  Phi   [deg.]  Abs(Dir.)[      ]   Abs(Theta)[      ]  Phase(Theta)[deg.]  Abs(Phi  )[      ]  Phase(Phi  )[deg.]  Ax.Ratio[      ]    
------------------------------------------------------------------------------------------------------------------------------------------------------
-180.000         -90.000            2.437e-03           1.839e-09              34.519           2.437e-03             256.102           3.162e+02     
-179.000         -90.000            7.887e-03           5.602e-03             239.186           2.286e-03             254.866           8.031e+00     
-178.000         -90.000            2.061e-02           1.873e-02             239.283           1.884e-03             250.849           1.725e+01     
-177.000         -90.000            3.209e-02           3.072e-02             239.511           1.372e-03             242.895           8.373e+01     
-176.000         -90.000            3.460e-02           3.368e-02             239.989           9.202e-04             228.762           3.189e+01     
-175.000         -90.000            2.631e-02           2.564e-02             241.041           6.672e-04             206.423           1.111e+01     
-174.000         -90.000            1.258e-02           1.191e-02             243.838           6.655e-04             180.210           4.777e+00     
-173.000         -90.000            2.508e-03           1.642e-03             258.317           8.658e-04             159.489           1.429e+00     
-172.000         -90.000            3.032e-03           1.891e-03              35.099           1.141e-03             146.308           1.582e+00     
-171.000         -90.000            1.440e-02           1.306e-02              48.536           1.340e-03             138.198           3.121e+00     
-170.000         -90.000            2.994e-02           2.859e-02              51.724           1.351e-03             133.216           4.657e+00     
-169.000         -90.000            4.027e-02           3.913e-02              53.716           1.144e-03             130.552           6.016e+00     
-168.000         -90.000            3.918e-02           3.840e-02              56.033           7.845e-04             130.480           7.273e+00     
-167.000         -90.000            2.747e-02           2.707e-02              60.052           4.033e-04             135.391           8.476e+00     
-166.000         -90.000            1.238e-02           1.224e-02              69.662           1.429e-04             155.784           9.276e+00     
-165.000         -90.000            3.110e-03           3.010e-03             105.883           1.007e-04             211.689           5.697e+00     
-164.000         -90.000            5.158e-03           4.867e-03             182.017           2.910e-04             243.547           4.719e+00     
-163.000         -90.000            1.713e-02           1.649e-02             204.973           6.417e-04             250.953           7.185e+00     
