Theta [deg.]  Phi   [deg.]  Abs(Dir.)[      ]   Abs(Theta)[      ]  Phase(Theta)[deg.]  Abs(Phi  )[      ]  Phase(Phi  )[deg.]  Ax.Ratio[      ]    
------------------------------------------------------------------------------------------------------------------------------------------------------
-180.000         -90.000            1.677e-03           9.195e-07              50.221           1.676e-03              62.945           1.940e+02     
-179.000         -90.000            7.148e-03           5.474e-03             357.773           1.674e-03              62.271           2.151e+00     
-178.000         -90.000            2.109e-02           1.942e-02             357.638           1.667e-03              60.279           3.918e+00     
-177.000         -90.000            3.764e-02           3.599e-02             357.861           1.655e-03              57.067           5.496e+00     
-176.000         -90.000            4.987e-02           4.823e-02             358.383           1.635e-03              52.773           6.760e+00     
-175.000         -90.000            5.269e-02           5.108e-02             359.346           1.602e-03              47.545           7.683e+00     
-174.000         -90.000            4.501e-02           4.346e-02               1.106           1.550e-03              41.497           8.344e+00     
-173.000         -90.000            3.018e-02           2.871e-02               4.579           1.472e-03              34.679           9.148e+00     
-172.000         -90.000            1.451e-02           1.314e-02              12.799           1.365e-03              27.029           1.386e+01     
-171.000         -90.000            4.605e-03           3.374e-03              41.698           1.230e-03              18.362           5.524e+00     
-170.000         -90.000            4.605e-03           3.528e-03             119.269           1.077e-03               8.352           2.038e+00     
-169.000         -90.000            1.447e-02           1.355e-02             147.180           9.236e-04             356.556           8.218e+00     
-168.000         -90.000            3.006e-02           2.927e-02             155.689           7.924e-04             342.550           5.223e+01     
-167.000         -90.000            4.492e-02           4.421e-02             160.010           7.066e-04             326.276           3.382e+01     
-166.000         -90.000            5.299e-02           5.230e-02             163.295           6.831e-04             308.564           1.550e+01     
-165.000         -90.000            5.115e-02           5.042e-02             166.888           7.271e-04             291.088           1.011e+01     
-164.000         -90.000            4.048e-02           3.965e-02             172.122           8.285e-04             275.401           7.116e+00     
-163.000         -90.000            2.581e-02           2.485e-02             181.572           9.630e-04             262.108           5.155e+00     
