Theta [deg.]  Phi   [deg.]  Abs(Dir.)[      ]   Abs(Theta)[      ]  Phase(Theta)[deg.]  Abs(Phi  )[      ]  Phase(Phi  )[deg.]  Ax.Ratio[      ]    
------------------------------------------------------------------------------------------------------------------------------------------------------
-180.000         -90.000            3.084e-03           5.055e-08             322.921           3.084e-03             350.101           3.162e+02     
-179.000         -90.000            6.168e-03           3.089e-03              62.926           3.079e-03             349.642           1.344e+00     
-178.000         -90.000            1.475e-02           1.168e-02              63.145           3.067e-03             348.285           2.069e+00     
-177.000         -90.000            2.690e-02           2.385e-02              63.356           3.050e-03             346.057           2.887e+00     
-176.000         -90.000            3.993e-02           3.690e-02              63.645           3.032e-03             343.005           3.544e+00     
-175.000         -90.000            5.094e-02           4.792e-02              64.064           3.016e-03             339.190           4.004e+00     
-174.000         -90.000            5.748e-02           5.447e-02              64.682           3.005e-03             334.689           4.258e+00     
-173.000         -90.000            5.812e-02           5.512e-02              65.612           3.001e-03             329.584           4.312e+00     
-172.000         -90.000            5.276e-02           4.976e-02              67.047           3.004e-03             323.955           4.192e+00     
-171.000         -90.000            4.267e-02           3.965e-02              69.354           3.015e-03             317.875           3.939e+00     
-170.000         -90.000            3.017e-02           2.714e-02              73.359           3.032e-03             311.398           3.646e+00     
-169.000         -90.000            1.819e-02           1.514e-02              81.169           3.053e-03             304.565           3.619e+00     
-168.000         -90.000            9.603e-03           6.523e-03              99.494           3.080e-03             297.400           6.821e+00     
-167.000         -90.000            6.583e-03           3.469e-03             144.333           3.114e-03             289.921           3.235e+00     
-166.000         -90.000            1.017e-02           7.011e-03             188.223           3.161e-03             282.149           1.499e+00     
-165.000         -90.000            2.003e-02           1.680e-02             206.071           3.226e-03             274.120           2.539e+00     
-164.000         -90.000            3.450e-02           3.118e-02             213.903           3.319e-03             265.895           4.058e+00     
-163.000         -90.000            5.097e-02           4.752e-02             218.170           3.448e-03             257.565           6.110e+00     
