Theta [deg.]  Phi   [deg.]  Abs(Dir.)[      ]   Abs(Theta)[      ]  Phase(Theta)[deg.]  Abs(Phi  )[      ]  Phase(Phi  )[deg.]  Ax.Ratio[      ]    
------------------------------------------------------------------------------------------------------------------------------------------------------
-180.000         -90.000            6.923e-04           8.710e-09             144.163           6.923e-04             274.285           3.162e+02     
-179.000         -90.000            4.343e-03           3.651e-03             247.808           6.921e-04             273.903           6.046e+00     
-178.000         -90.000            1.368e-02           1.298e-02             248.026           6.908e-04             272.761           1.082e+01     
-177.000         -90.000            2.454e-02           2.386e-02             248.384           6.875e-04             270.838           1.580e+01     
-176.000         -90.000            3.213e-02           3.145e-02             248.995           6.811e-04             268.096           2.117e+01     
-175.000         -90.000            3.312e-02           3.245e-02             250.053           6.706e-04             264.486           2.845e+01     
-174.000         -90.000            2.711e-02           2.646e-02             251.981           6.557e-04             259.945           4.696e+01     
-173.000         -90.000            1.687e-02           1.623e-02             255.915           6.366e-04             254.399           1.984e+02     
-172.000         -90.000            7.004e-03           6.389e-03             266.124           6.150e-04             247.786           1.114e+01     
-171.000         -90.000            1.955e-03           1.362e-03             310.021           5.935e-04             240.072           1.741e+00     
-170.000         -90.000            4.016e-03           3.441e-03              25.394           5.754e-04             231.283           6.380e+00     
-169.000         -90.000            1.234e-02           1.178e-02              43.538           5.643e-04             221.538           1.372e+02     
-168.000         -90.000            2.335e-02           2.279e-02              49.918           5.629e-04             211.061           2.012e+01     
-167.000         -90.000            3.232e-02           3.175e-02              53.684           5.728e-04             200.160           1.365e+01     
-166.000         -90.000            3.549e-02           3.489e-02              57.060           5.934e-04             189.162           1.042e+01     
-165.000         -90.000            3.167e-02           3.104e-02              61.338           6.225e-04             178.345           7.960e+00     
-164.000         -90.000            2.279e-02           2.214e-02              68.310           6.558e-04             167.887           5.897e+00     
-163.000         -90.000            1.307e-02           1.238e-02              82.158           6.884e-04             157.870           4.392e+00     
