Theta [deg.]  Phi   [deg.]  Abs(Dir.)[      ]   Abs(Theta)[      ]  Phase(Theta)[deg.]  Abs(Phi  )[      ]  Phase(Phi  )[deg.]  Ax.Ratio[      ]    
------------------------------------------------------------------------------------------------------------------------------------------------------
-180.000         -90.000            6.219e-02           1.246e-07             265.305           6.219e-02              43.440           3.162e+02     
-179.000         -90.000            6.474e-02           3.416e-03             236.739           6.132e-02              43.006           1.879e+01     
-178.000         -90.000            7.128e-02           1.251e-02             236.842           5.877e-02              41.707           9.968e+00     
-177.000         -90.000            7.918e-02           2.439e-02             237.158           5.479e-02              39.503           6.999e+00     
-176.000         -90.000            8.507e-02           3.530e-02             237.700           4.977e-02              36.328           5.384e+00     
-175.000         -90.000            8.598e-02           4.179e-02             238.557           4.419e-02              32.095           4.255e+00     
-174.000         -90.000            8.038e-02           4.184e-02             239.908           3.854e-02              26.700           3.357e+00     
-173.000         -90.000            6.878e-02           3.553e-02             242.114           3.325e-02              20.057           2.603e+00     
-172.000         -90.000            5.363e-02           2.496e-02             245.997           2.868e-02              12.134           1.976e+00     
-171.000         -90.000            3.865e-02           1.362e-02             253.820           2.503e-02               3.014           1.586e+00     
-170.000         -90.000            2.767e-02           5.290e-03             273.730           2.238e-02             352.954           2.116e+00     
-169.000         -90.000            2.348e-02           2.828e-03             327.026           2.066e-02             342.380           1.152e+01     
-168.000         -90.000            2.697e-02           7.282e-03              10.454           1.969e-02             331.798           3.303e+00     
-167.000         -90.000            3.679e-02           1.755e-02              25.707           1.924e-02             321.646           1.602e+00     
-166.000         -90.000            4.974e-02           3.071e-02              32.477           1.902e-02             312.195           1.343e+00     
-165.000         -90.000            6.171e-02           4.293e-02              36.449           1.878e-02             303.534           1.517e+00     
-164.000         -90.000            6.890e-02           5.060e-02              39.421           1.830e-02             295.620           1.765e+00     
-163.000         -90.000            6.890e-02           5.145e-02              42.254           1.744e-02             288.337           2.021e+00     
