Theta [deg.]  Phi   [deg.]  Abs(Dir.)[      ]   Abs(Theta)[      ]  Phase(Theta)[deg.]  Abs(Phi  )[      ]  Phase(Phi  )[deg.]  Ax.Ratio[      ]    
------------------------------------------------------------------------------------------------------------------------------------------------------
-180.000         -90.000            3.788e-03           2.164e-07             155.048           3.788e-03             357.030           3.162e+02     
-179.000         -90.000            5.493e-03           1.870e-03             131.423           3.622e-03             358.356           2.486e+00     
-178.000         -90.000            9.240e-03           6.048e-03             131.613           3.192e-03               2.613           2.264e+00     
-177.000         -90.000            1.217e-02           9.488e-03             132.190           2.682e-03              10.386           2.427e+00     
-176.000         -90.000            1.200e-02           9.693e-03             133.401           2.311e-03              21.895           2.289e+00     
-175.000         -90.000            8.782e-03           6.542e-03             136.116           2.241e-03              35.521           1.768e+00     
-174.000         -90.000            4.877e-03           2.368e-03             144.083           2.508e-03              47.698           1.122e+00     
-173.000         -90.000            3.271e-03           2.518e-04             201.834           3.019e-03              55.788           6.565e+00     
-172.000         -90.000            5.372e-03           1.779e-03             285.443           3.593e-03              59.481           2.566e+00     
-171.000         -90.000            9.935e-03           5.902e-03             296.337           4.034e-03              59.534           1.910e+00     
-170.000         -90.000            1.392e-02           9.710e-03             300.768           4.206e-03              56.719           1.894e+00     
-169.000         -90.000            1.460e-02           1.054e-02             304.619           4.067e-03              51.584           1.766e+00     
-168.000         -90.000            1.156e-02           7.889e-03             310.427           3.667e-03              44.522           1.477e+00     
-167.000         -90.000            6.896e-03           3.794e-03             323.522           3.102e-03              35.917           1.389e+00     
-166.000         -90.000            3.802e-03           1.328e-03               5.030           2.474e-03              26.309           5.601e+00     
-165.000         -90.000            4.265e-03           2.418e-03              65.385           1.846e-03              16.560           2.234e+00     
-164.000         -90.000            7.696e-03           6.441e-03              86.950           1.255e-03               8.063           2.329e+00     
-163.000         -90.000            1.141e-02           1.068e-02              95.966           7.293e-04               3.422           3.831e+00     
