Theta [deg.]  Phi   [deg.]  Abs(Dir.)[      ]   Abs(Theta)[      ]  Phase(Theta)[deg.]  Abs(Phi  )[      ]  Phase(Phi  )[deg.]  Ax.Ratio[      ]    
------------------------------------------------------------------------------------------------------------------------------------------------------
-180.000         -90.000            2.768e-02           3.177e-07             230.588           2.768e-02              27.987           3.162e+02     
-179.000         -90.000            3.093e-02           4.006e-03             126.866           2.692e-02              27.213           2.642e+00     
-178.000         -90.000            3.935e-02           1.451e-02             126.682           2.484e-02              24.975           1.405e+00     
-177.000         -90.000            4.925e-02           2.746e-02             126.724           2.179e-02              21.079           1.350e+00     
-176.000         -90.000            5.617e-02           3.784e-02             126.910           1.832e-02              15.197           1.712e+00     
-175.000         -90.000            5.664e-02           4.163e-02             127.290           1.500e-02               6.914           2.165e+00     
-174.000         -90.000            4.968e-02           3.734e-02             128.010           1.234e-02             355.903           2.757e+00     
-173.000         -90.000            3.728e-02           2.662e-02             129.436           1.066e-02             342.365           3.808e+00     
-172.000         -90.000            2.372e-02           1.364e-02             132.704           1.009e-02             327.472           7.807e+00     
-171.000         -90.000            1.407e-02           3.570e-03             143.767           1.050e-02             313.045           1.227e+01     
-170.000         -90.000            1.223e-02           6.210e-04             236.903           1.161e-02             300.449           4.883e+00     
-169.000         -90.000            1.947e-02           6.463e-03             285.413           1.301e-02             290.044           2.627e+01     
-168.000         -90.000            3.385e-02           1.957e-02             292.571           1.428e-02             281.531           1.048e+01     
-167.000         -90.000            5.081e-02           3.575e-02             295.303           1.506e-02             274.424           5.977e+00     
-166.000         -90.000            6.474e-02           4.961e-02             296.913           1.513e-02             268.277           4.719e+00     
-165.000         -90.000            7.089e-02           5.649e-02             298.289           1.440e-02             262.726           4.025e+00     
-164.000         -90.000            6.705e-02           5.410e-02             299.930           1.295e-02             257.482           3.465e+00     
-163.000         -90.000            5.429e-02           4.332e-02             302.426           1.097e-02             252.285           2.899e+00     
