Theta [deg.]  Phi   [deg.]  Abs(Dir.)[      ]   Abs(Theta)[      ]  Phase(Theta)[deg.]  Abs(Phi  )[      ]  Phase(Phi  )[deg.]  Ax.Ratio[      ]    
------------------------------------------------------------------------------------------------------------------------------------------------------
-180.000         -90.000            2.908e-04           8.943e-07              67.762           2.899e-04             279.622           3.418e+01     
-179.000         -90.000            5.509e-03           5.133e-03             195.518           3.761e-04             274.074           3.781e+00     
-178.000         -90.000            1.762e-02           1.690e-02             196.118           7.150e-04             263.691           5.294e+00     
-177.000         -90.000            2.817e-02           2.667e-02             196.819           1.492e-03             255.250           5.041e+00     
-176.000         -90.000            3.019e-02           2.733e-02             198.023           2.855e-03             249.352           4.135e+00     
-175.000         -90.000            2.328e-02           1.852e-02             200.499           4.766e-03             244.916           3.232e+00     
-174.000         -90.000            1.371e-02           6.768e-03             207.425           6.940e-03             241.142           3.300e+00     
-173.000         -90.000            9.495e-03           5.905e-04             258.873           8.905e-03             237.587           1.132e+01     
-172.000         -90.000            1.432e-02           4.162e-03             353.081           1.016e-02             234.015           2.026e+00     
-171.000         -90.000            2.476e-02           1.439e-02               3.971           1.038e-02             230.314           2.381e+00     
-170.000         -90.000            3.289e-02           2.339e-02               8.652           9.506e-03             226.461           3.295e+00     
-169.000         -90.000            3.231e-02           2.451e-02              13.167           7.796e-03             222.541           4.545e+00     
-168.000         -90.000            2.298e-02           1.729e-02              20.560           5.688e-03             218.835           7.251e+00     
-167.000         -90.000            1.136e-02           7.706e-03              38.462           3.651e-03             216.047           5.080e+01     
-166.000         -90.000            5.724e-03           3.689e-03              90.355           2.034e-03             215.926           2.090e+00     
-165.000         -90.000            1.016e-02           9.149e-03             138.153           1.009e-03             222.724           3.027e+00     
-164.000         -90.000            2.159e-02           2.100e-02             154.484           5.923e-04             242.850           5.956e+00     
-163.000         -90.000            3.198e-02           3.127e-02             161.950           7.160e-04             266.655           6.842e+00     
