Theta [deg.]  Phi   [deg.]  Abs(Dir.)[      ]   Abs(Theta)[      ]  Phase(Theta)[deg.]  Abs(Phi  )[      ]  Phase(Phi  )[deg.]  Ax.Ratio[      ]    
------------------------------------------------------------------------------------------------------------------------------------------------------
-180.000         -90.000            5.038e-03           4.191e-08             142.124           5.038e-03             335.282           3.162e+02     
-179.000         -90.000            1.101e-02           6.199e-03              43.518           4.815e-03             333.314           1.456e+00     
-178.000         -90.000            2.456e-02           2.030e-02              43.685           4.256e-03             327.174           2.278e+00     
-177.000         -90.000            3.570e-02           3.206e-02              44.179           3.640e-03             316.402           2.971e+00     
-176.000         -90.000            3.618e-02           3.291e-02              45.237           3.272e-03             301.335           3.288e+00     
-175.000         -90.000            2.555e-02           2.221e-02              47.661           3.337e-03             284.445           3.238e+00     
-174.000         -90.000            1.167e-02           7.868e-03              55.120           3.805e-03             269.261           3.517e+00     
-173.000         -90.000            5.172e-03           7.232e-04             117.777           4.448e-03             257.526           4.226e+00     
-172.000         -90.000            1.178e-02           6.839e-03             199.613           4.944e-03             249.013           2.218e+00     
-171.000         -90.000            2.806e-02           2.304e-02             208.695           5.021e-03             242.932           4.410e+00     
-170.000         -90.000            4.349e-02           3.892e-02             211.889           4.572e-03             238.677           7.093e+00     
-169.000         -90.000            4.763e-02           4.395e-02             214.037           3.687e-03             236.008           9.901e+00     
-168.000         -90.000            3.731e-02           3.471e-02             216.685           2.598e-03             235.138           1.233e+01     
-167.000         -90.000            1.896e-02           1.738e-02             222.184           1.576e-03             237.018           1.408e+01     
-166.000         -90.000            4.440e-03           3.616e-03             243.690           8.237e-04             244.082           3.162e+02     
-165.000         -90.000            3.296e-03           2.879e-03             345.258           4.165e-04             260.886           2.646e+00     
-164.000         -90.000            1.649e-02           1.618e-02              11.811           3.062e-04             286.755           7.298e+00     
-163.000         -90.000            3.586e-02           3.549e-02              18.631           3.696e-04             305.590           1.025e+01     
