Theta [deg.]  Phi   [deg.]  Abs(Dir.)[      ]   Abs(Theta)[      ]  Phase(Theta)[deg.]  Abs(Phi  )[      ]  Phase(Phi  )[deg.]  Ax.Ratio[      ]    
------------------------------------------------------------------------------------------------------------------------------------------------------
-180.000         -90.000            5.198e-02           6.774e-08             196.617           5.198e-02             107.040           3.162e+02     
-179.000         -90.000            5.627e-02           4.889e-03              12.571           5.139e-02             106.818           3.253e+00     
-178.000         -90.000            6.860e-02           1.896e-02              12.672           4.964e-02             106.137           1.625e+00     
-177.000         -90.000            8.714e-02           4.029e-02              12.827           4.685e-02             104.968           1.088e+00     
-176.000         -90.000            1.092e-01           6.597e-02              13.055           4.320e-02             103.264           1.236e+00     
-175.000         -90.000            1.315e-01           9.253e-02              13.373           3.893e-02             100.949           1.545e+00     
-174.000         -90.000            1.507e-01           1.164e-01              13.807           3.430e-02              97.920           1.860e+00     
-173.000         -90.000            1.640e-01           1.344e-01              14.392           2.960e-02              94.041           2.185e+00     
-172.000         -90.000            1.693e-01           1.442e-01              15.181           2.511e-02              89.138           2.533e+00     
-171.000         -90.000            1.657e-01           1.446e-01              16.250           2.106e-02              83.015           2.925e+00     
-170.000         -90.000            1.534e-01           1.357e-01              17.717           1.767e-02              75.491           3.410e+00     
-169.000         -90.000            1.341e-01           1.190e-01              19.772           1.507e-02              66.491           4.106e+00     
-168.000         -90.000            1.102e-01           9.687e-02              22.736           1.334e-02              56.180           5.378e+00     
-167.000         -90.000            8.495e-02           7.248e-02              27.190           1.247e-02              45.067           9.095e+00     
-166.000         -90.000            6.171e-02           4.930e-02              34.261           1.241e-02              33.933           3.162e+02     
-165.000         -90.000            4.363e-02           3.059e-02              46.219           1.304e-02              23.541           5.484e+00     
-164.000         -90.000            3.320e-02           1.902e-02              66.916           1.418e-02              14.373           2.062e+00     
-163.000         -90.000            3.193e-02           1.627e-02              96.837           1.565e-02               6.569           1.020e+00     
