Theta [deg.]  Phi   [deg.]  Abs(Dir.)[      ]   Abs(Theta)[      ]  Phase(Theta)[deg.]  Abs(Phi  )[      ]  Phase(Phi  )[deg.]  Ax.Ratio[      ]    
------------------------------------------------------------------------------------------------------------------------------------------------------
-180.000         -90.000            1.053e-03           5.991e-08             265.441           1.053e-03               7.971           1.358e+02     
-179.000         -90.000            5.023e-03           3.973e-03             308.236           1.050e-03               7.082           2.469e+00     
-178.000         -90.000            1.582e-02           1.478e-02             308.433           1.042e-03               4.434           4.647e+00     
-177.000         -90.000            3.055e-02           2.951e-02             308.680           1.038e-03               0.121           6.914e+00     
-176.000         -90.000            4.529e-02           4.424e-02             309.049           1.048e-03             354.351           9.248e+00     
-175.000         -90.000            5.612e-02           5.504e-02             309.609           1.083e-03             347.485           1.176e+01     
-174.000         -90.000            6.025e-02           5.910e-02             310.467           1.151e-03             340.011           1.475e+01     
-173.000         -90.000            5.671e-02           5.545e-02             311.808           1.257e-03             332.448           1.922e+01     
-172.000         -90.000            4.660e-02           4.520e-02             313.989           1.399e-03             325.227           3.004e+01     
-171.000         -90.000            3.277e-02           3.120e-02             317.805           1.569e-03             318.604           3.162e+02     
-170.000         -90.000            1.903e-02           1.728e-02             325.317           1.754e-03             312.674           1.573e+01     
-169.000         -90.000            9.112e-03           7.177e-03             343.282           1.935e-03             307.420           3.918e+00     
-168.000         -90.000            5.643e-03           3.550e-03              29.381           2.093e-03             302.765           1.311e+00     
-167.000         -90.000            9.487e-03           7.277e-03              74.833           2.210e-03             298.615           3.096e+00     
-166.000         -90.000            1.953e-02           1.726e-02              92.611           2.271e-03             294.880           8.110e+00     
-165.000         -90.000            3.304e-02           3.077e-02             100.377           2.267e-03             291.480           2.049e+01     
-164.000         -90.000            4.638e-02           4.418e-02             104.773           2.198e-03             288.362           7.518e+01     
-163.000         -90.000            5.606e-02           5.399e-02             107.907           2.068e-03             285.483           1.254e+02     
