Theta [deg.]  Phi   [deg.]  Abs(Dir.)[      ]   Abs(Theta)[      ]  Phase(Theta)[deg.]  Abs(Phi  )[      ]  Phase(Phi  )[deg.]  Ax.Ratio[      ]    
------------------------------------------------------------------------------------------------------------------------------------------------------
-180.000         -90.000            3.565e-04           1.731e-06             189.635           3.547e-04             347.898           3.881e+01     
-179.000         -90.000            4.176e-03           3.704e-03             356.315           4.725e-04             343.366           1.402e+01     
-178.000         -90.000            1.302e-02           1.209e-02             356.770           9.330e-04             334.910           1.032e+01     
-177.000         -90.000            2.033e-02           1.835e-02             357.460           1.988e-03             327.958           6.688e+00     
-176.000         -90.000            2.124e-02           1.738e-02             358.782           3.859e-03             322.871           4.182e+00     
-175.000         -90.000            1.650e-02           9.959e-03               1.831           6.545e-03             318.786           2.612e+00     
-174.000         -90.000            1.192e-02           2.206e-03              13.456           9.710e-03             315.073           2.645e+00     
-173.000         -90.000            1.345e-02           7.217e-04             136.132           1.273e-02             311.368           5.341e+01     
-172.000         -90.000            2.219e-02           7.327e-03             163.756           1.486e-02             307.444           3.286e+00     
-171.000         -90.000            3.310e-02           1.754e-02             169.312           1.556e-02             303.134           2.352e+00     
-170.000         -90.000            3.865e-02           2.400e-02             173.081           1.465e-02             298.281           2.030e+00     
-169.000         -90.000            3.459e-02           2.217e-02             177.849           1.241e-02             292.715           1.715e+00     
-168.000         -90.000            2.325e-02           1.378e-02             186.694           9.470e-03             286.255           1.287e+00     
-167.000         -90.000            1.194e-02           5.414e-03             209.643           6.524e-03             278.773           1.469e+00     
-166.000         -90.000            7.485e-03           3.390e-03             268.598           4.094e-03             270.417           6.326e+01     
-165.000         -90.000            1.132e-02           8.940e-03             308.557           2.382e-03             262.197           3.064e+00     
-164.000         -90.000            1.874e-02           1.742e-02             323.468           1.320e-03             257.135           4.017e+00     
-163.000         -90.000            2.287e-02           2.210e-02             332.576           7.628e-04             261.532           5.713e+00     
