Theta [deg.]  Phi   [deg.]  Abs(Dir.)[      ]   Abs(Theta)[      ]  Phase(Theta)[deg.]  Abs(Phi  )[      ]  Phase(Phi  )[deg.]  Ax.Ratio[      ]    
------------------------------------------------------------------------------------------------------------------------------------------------------
-180.000         -90.000            1.156e-02           1.099e-06             153.718           1.156e-02             293.695           1.594e+02     
-179.000         -90.000            2.375e-02           1.192e-02             341.227           1.183e-02             289.573           2.066e+00     
-178.000         -90.000            4.926e-02           3.636e-02             341.117           1.290e-02             278.801           2.090e+00     
-177.000         -90.000            6.532e-02           4.933e-02             341.016           1.599e-02             264.873           1.857e+00     
-176.000         -90.000            6.017e-02           3.822e-02             340.999           2.195e-02             252.037           1.321e+00     
-175.000         -90.000            4.435e-02           1.397e-02             341.464           3.037e-02             242.237           1.525e+00     
-174.000         -90.000            3.956e-02           1.270e-04             358.454           3.943e-02             235.231           2.109e+01     
-173.000         -90.000            5.624e-02           9.789e-03             157.066           4.645e-02             230.176           2.327e+00     
-172.000         -90.000            8.230e-02           3.319e-02             157.990           4.911e-02             226.324           1.547e+00     
-171.000         -90.000            9.410e-02           4.764e-02             158.560           4.646e-02             223.106           1.584e+00     
-170.000         -90.000            7.886e-02           3.960e-02             159.947           3.926e-02             220.010           1.730e+00     
-169.000         -90.000            4.682e-02           1.720e-02             164.638           2.961e-02             216.441           2.181e+00     
-168.000         -90.000            2.167e-02           1.699e-03             198.782           1.997e-02             211.474           1.687e+01     
-167.000         -90.000            1.903e-02           6.781e-03             309.525           1.225e-02             203.525           1.510e+00     
-166.000         -90.000            3.342e-02           2.606e-02             320.944           7.362e-03             190.247           2.829e+00     
-165.000         -90.000            4.537e-02           4.012e-02             324.826           5.251e-03             170.818           6.990e+00     
-164.000         -90.000            4.084e-02           3.553e-02             328.866           5.312e-03             150.964           8.119e+01     
-163.000         -90.000            2.421e-02           1.744e-02             338.296           6.774e-03             137.393           6.080e+00     
