Theta [deg.]  Phi   [deg.]  Abs(Dir.)[      ]   Abs(Theta)[      ]  Phase(Theta)[deg.]  Abs(Phi  )[      ]  Phase(Phi  )[deg.]  Ax.Ratio[      ]    
------------------------------------------------------------------------------------------------------------------------------------------------------
-180.000         -90.000            4.042e-04           6.587e-09             196.845           4.042e-04             337.866           3.162e+02     
-179.000         -90.000            3.032e-03           2.625e-03             162.337           4.072e-04             337.485           3.464e+01     
-178.000         -90.000            9.899e-03           9.483e-03             162.456           4.160e-04             336.347           4.681e+01     
-177.000         -90.000            1.839e-02           1.796e-02             162.726           4.296e-04             334.470           4.608e+01     
-176.000         -90.000            2.527e-02           2.482e-02             163.201           4.467e-04             331.870           3.860e+01     
-175.000         -90.000            2.796e-02           2.749e-02             164.010           4.654e-04             328.559           2.930e+01     
-174.000         -90.000            2.548e-02           2.500e-02             165.413           4.837e-04             324.532           2.051e+01     
-173.000         -90.000            1.885e-02           1.835e-02             167.999           4.999e-04             319.773           1.308e+01     
-172.000         -90.000            1.066e-02           1.015e-02             173.453           5.129e-04             314.254           7.257e+00     
-171.000         -90.000            4.096e-03           3.573e-03             188.514           5.227e-04             307.953           3.121e+00     
-170.000         -90.000            1.677e-03           1.147e-03             246.222           5.302e-04             300.874           2.177e+00     
-169.000         -90.000            4.334e-03           3.796e-03             301.185           5.377e-04             293.066           2.143e+01     
-168.000         -90.000            1.105e-02           1.050e-02             315.658           5.477e-04             284.652           8.831e+00     
-167.000         -90.000            1.926e-02           1.870e-02             321.344           5.624e-04             275.832           8.205e+00     
-166.000         -90.000            2.587e-02           2.529e-02             324.629           5.831e-04             266.857           7.836e+00     
-165.000         -90.000            2.838e-02           2.777e-02             327.312           6.095e-04             257.998           7.236e+00     
-164.000         -90.000            2.590e-02           2.526e-02             330.396           6.391e-04             249.492           6.371e+00     
-163.000         -90.000            1.944e-02           1.877e-02             335.097           6.678e-04             241.506           5.313e+00     
