Theta [deg.]  Phi   [deg.]  Abs(Dir.)[      ]   Abs(Theta)[      ]  Phase(Theta)[deg.]  Abs(Phi  )[      ]  Phase(Phi  )[deg.]  Ax.Ratio[      ]    
------------------------------------------------------------------------------------------------------------------------------------------------------
-180.000         -90.000            2.676e-04           7.630e-08             184.184           2.675e-04             259.942           6.109e+01     
-179.000         -90.000            5.260e-03           4.964e-03               0.063           2.964e-04             256.423           4.226e+00     
-178.000         -90.000            1.735e-02           1.695e-02               0.201           4.016e-04             248.008           7.041e+00     
-177.000         -90.000            2.939e-02           2.877e-02               0.475           6.194e-04             238.898           8.048e+00     
-176.000         -90.000            3.432e-02           3.334e-02               1.005           9.758e-04             231.405           7.678e+00     
-175.000         -90.000            2.935e-02           2.790e-02               2.075           1.453e-03             225.716           6.528e+00     
-174.000         -90.000            1.770e-02           1.572e-02               4.565           1.971e-03             221.306           5.118e+00     
-173.000         -90.000            6.597e-03           4.197e-03              13.175           2.400e-03             217.649           4.809e+00     
-172.000         -90.000            3.084e-03           4.833e-04             115.707           2.600e-03             214.363           2.358e+00     
-171.000         -90.000            9.772e-03           7.301e-03             163.598           2.472e-03             211.146           2.755e+00     
-170.000         -90.000            2.330e-02           2.129e-02             169.567           2.008e-03             207.724           5.588e+00     
-169.000         -90.000            3.622e-02           3.490e-02             172.218           1.316e-03             203.677           1.014e+01     
-168.000         -90.000            4.133e-02           4.073e-02             174.443           5.984e-04             197.848           2.103e+01     
-167.000         -90.000            3.578e-02           3.568e-02             177.428           1.054e-04             182.380           2.138e+02     
-166.000         -90.000            2.280e-02           2.274e-02             182.939           6.025e-05              48.156           2.741e+01     
-165.000         -90.000            9.877e-03           9.283e-03             196.795           5.932e-04              25.013           2.941e+01     
-164.000         -90.000            4.628e-03           2.929e-03             246.134           1.699e-03              17.557           2.339e+00     
-163.000         -90.000            1.063e-02           7.393e-03             306.183           3.233e-03              11.912           1.841e+00     
