Theta [deg.]  Phi   [deg.]  Abs(Dir.)[      ]   Abs(Theta)[      ]  Phase(Theta)[deg.]  Abs(Phi  )[      ]  Phase(Phi  )[deg.]  Ax.Ratio[      ]    
------------------------------------------------------------------------------------------------------------------------------------------------------
-180.000         -90.000            3.332e-05           6.388e-07             109.405           3.268e-05             357.821           7.712e+00     
-179.000         -90.000            3.354e-03           3.318e-03             266.569           3.592e-05               2.424           9.663e+00     
-178.000         -90.000            1.137e-02           1.132e-02             267.090           4.903e-05              12.125           1.574e+01     
-177.000         -90.000            1.902e-02           1.894e-02             267.873           7.704e-05              20.291           1.697e+01     
-176.000         -90.000            2.148e-02           2.136e-02             269.260           1.202e-04              23.703           1.465e+01     
-175.000         -90.000            1.724e-02           1.707e-02             271.949           1.707e-04              22.199           1.067e+01     
-174.000         -90.000            9.110e-03           8.894e-03             278.202           2.168e-04              16.030           6.468e+00     
-173.000         -90.000            2.458e-03           2.204e-03             300.810           2.543e-04               5.114           3.345e+00     
-172.000         -90.000            1.890e-03           1.594e-03              30.217           2.957e-04             349.638           3.981e+00     
-171.000         -90.000            8.351e-03           7.981e-03              61.469           3.694e-04             331.259           4.648e+00     
-170.000         -90.000            1.850e-02           1.799e-02              69.834           5.065e-04             312.969           6.721e+00     
-169.000         -90.000            2.673e-02           2.601e-02              74.461           7.205e-04             296.835           9.051e+00     
-168.000         -90.000            2.854e-02           2.755e-02              78.795           9.939e-04             282.987           1.323e+01     
-167.000         -90.000            2.327e-02           2.199e-02              84.878           1.282e-03             270.568           4.419e+01     
-166.000         -90.000            1.445e-02           1.292e-02              96.338           1.530e-03             258.611           1.058e+01     
-165.000         -90.000            7.626e-03           5.920e-03             123.371           1.706e-03             246.324           2.452e+00     
-164.000         -90.000            7.078e-03           5.269e-03             172.856           1.808e-03             233.209           2.179e+00     
-163.000         -90.000            1.325e-02           1.138e-02             204.864           1.868e-03             219.148           1.156e+01     
