Theta [deg.]  Phi   [deg.]  Abs(Dir.)[      ]   Abs(Theta)[      ]  Phase(Theta)[deg.]  Abs(Phi  )[      ]  Phase(Phi  )[deg.]  Ax.Ratio[      ]    
------------------------------------------------------------------------------------------------------------------------------------------------------
-180.000         -90.000            5.958e-04           7.005e-09             313.739           5.958e-04              83.327           3.162e+02     
-179.000         -90.000            3.698e-03           3.104e-03             358.954           5.941e-04              82.971           2.304e+00     
-178.000         -90.000            1.169e-02           1.111e-02             359.173           5.890e-04              81.901           4.382e+00     
-177.000         -90.000            2.124e-02           2.066e-02             359.542           5.801e-04              80.063           6.055e+00     
-176.000         -90.000            2.836e-02           2.779e-02               0.163           5.676e-04              77.372           7.183e+00     
-175.000         -90.000            3.010e-02           2.955e-02               1.210           5.518e-04              73.719           7.686e+00     
-174.000         -90.000            2.581e-02           2.528e-02               3.045           5.341e-04              68.990           7.561e+00     
-173.000         -90.000            1.735e-02           1.683e-02               6.575           5.166e-04              63.086           6.910e+00     
-172.000         -90.000            8.326e-03           7.823e-03              14.755           5.027e-04              55.974           6.210e+00     
-171.000         -90.000            2.561e-03           2.064e-03              42.704           4.961e-04              47.727           2.886e+01     
-170.000         -90.000            2.487e-03           1.987e-03             119.530           5.004e-04              38.570           2.034e+00     
-169.000         -90.000            8.147e-03           7.629e-03             148.816           5.182e-04              28.862           4.507e+00     
-168.000         -90.000            1.719e-02           1.664e-02             157.773           5.501e-04              19.020           8.501e+00     
-167.000         -90.000            2.590e-02           2.531e-02             162.371           5.940e-04               9.402           1.463e+01     
-166.000         -90.000            3.073e-02           3.008e-02             165.910           6.453e-04               0.233           2.816e+01     
-165.000         -90.000            2.981e-02           2.911e-02             169.795           6.971e-04             351.586           2.117e+02     
-164.000         -90.000            2.372e-02           2.298e-02             175.426           7.417e-04             343.425           2.760e+01     
-163.000         -90.000            1.527e-02           1.450e-02             185.500           7.720e-04             335.649           9.060e+00     
