Theta [deg.]  Phi   [deg.]  Abs(Dir.)[      ]   Abs(Theta)[      ]  Phase(Theta)[deg.]  Abs(Phi  )[      ]  Phase(Phi  )[deg.]  Ax.Ratio[      ]    
------------------------------------------------------------------------------------------------------------------------------------------------------
-180.000         -90.000            1.521e-02           1.433e-08             155.869           1.521e-02             206.605           3.162e+02     
-179.000         -90.000            2.313e-02           8.213e-03             183.205           1.492e-02             206.270           5.139e+00     
-178.000         -90.000            4.459e-02           3.051e-02             183.291           1.407e-02             205.261           5.572e+00     
-177.000         -90.000            7.341e-02           6.065e-02             183.428           1.276e-02             203.533           7.543e+00     
-176.000         -90.000            1.013e-01           9.019e-02             183.653           1.112e-02             201.008           1.063e+01     
-175.000         -90.000            1.202e-01           1.109e-01             184.020           9.297e-03             197.564           1.592e+01     
-174.000         -90.000            1.245e-01           1.170e-01             184.619           7.457e-03             193.023           2.879e+01     
-173.000         -90.000            1.127e-01           1.069e-01             185.615           5.742e-03             187.131           1.719e+02     
-172.000         -90.000            8.778e-02           8.352e-02             187.350           4.257e-03             179.561           3.432e+01     
-171.000         -90.000            5.658e-02           5.352e-02             190.639           3.064e-03             169.886           1.239e+01     
-170.000         -90.000            2.763e-02           2.545e-02             197.992           2.178e-03             157.660           5.554e+00     
-169.000         -90.000            8.999e-03           7.424e-03             221.015           1.575e-03             142.609           2.240e+00     
-168.000         -90.000            6.034e-03           4.830e-03             292.753           1.204e-03             124.965           1.174e+01     
-167.000         -90.000            1.993e-02           1.893e-02             328.833           1.002e-03             105.647           6.535e+00     
-166.000         -90.000            4.742e-02           4.651e-02             339.118           9.101e-04              85.848           7.477e+00     
-165.000         -90.000            8.168e-02           8.080e-02             343.674           8.863e-04              66.309           9.629e+00     
-164.000         -90.000            1.142e-01           1.133e-01             346.438           9.098e-04              47.186           1.281e+01     
-163.000         -90.000            1.369e-01           1.359e-01             348.642           9.818e-04              28.461           1.845e+01     
