Theta [deg.]  Phi   [deg.]  Abs(Dir.)[      ]   Abs(Theta)[      ]  Phase(Theta)[deg.]  Abs(Phi  )[      ]  Phase(Phi  )[deg.]  Ax.Ratio[      ]    
------------------------------------------------------------------------------------------------------------------------------------------------------
-180.000         -90.000            6.779e-03           2.752e-07             204.125           6.779e-03              62.591           2.523e+02     
-179.000         -90.000            1.240e-02           6.016e-03             316.006           6.385e-03              61.866           1.326e+00     
-178.000         -90.000            2.647e-02           2.112e-02             316.359           5.347e-03              59.827           2.080e+00     
-177.000         -90.000            4.174e-02           3.782e-02             316.754           3.925e-03              55.898           3.153e+00     
-176.000         -90.000            5.034e-02           4.787e-02             317.373           2.466e-03              48.637           4.407e+00     
-175.000         -90.000            4.778e-02           4.647e-02             318.429           1.310e-03              34.397           6.149e+00     
-174.000         -90.000            3.520e-02           3.450e-02             320.398           7.016e-04               5.665           9.971e+00     
-173.000         -90.000            1.870e-02           1.798e-02             324.713           7.260e-04             326.287           1.885e+02     
-172.000         -90.000            6.191e-03           4.898e-03             338.507           1.294e-03             300.406           3.717e+00     
-171.000         -90.000            3.333e-03           1.161e-03              61.879           2.172e-03             287.422           2.548e+00     
-170.000         -90.000            1.077e-02           7.717e-03             111.037           3.056e-03             280.336           1.186e+01     
-169.000         -90.000            2.396e-02           2.030e-02             120.388           3.659e-03             276.057           6.596e+00     
-168.000         -90.000            3.563e-02           3.184e-02             124.595           3.793e-03             273.377           6.092e+00     
-167.000         -90.000            3.957e-02           3.615e-02             127.875           3.415e-03             271.872           5.888e+00     
-166.000         -90.000            3.379e-02           3.115e-02             131.891           2.639e-03             271.589           5.582e+00     
-165.000         -90.000            2.147e-02           1.979e-02             138.884           1.686e-03             273.193           4.996e+00     
-164.000         -90.000            9.295e-03           8.475e-03             155.698           8.203e-04             279.042           3.968e+00     
-163.000         -90.000            3.992e-03           3.724e-03             205.102           2.681e-04             299.039           3.737e+00     
