Theta [deg.]  Phi   [deg.]  Abs(Dir.)[      ]   Abs(Theta)[      ]  Phase(Theta)[deg.]  Abs(Phi  )[      ]  Phase(Phi  )[deg.]  Ax.Ratio[      ]    
------------------------------------------------------------------------------------------------------------------------------------------------------
-180.000         -90.000            2.890e-04           1.978e-06             107.917           2.870e-04             248.158           1.891e+01     
-179.000         -90.000            3.755e-03           3.346e-03             292.968           4.084e-04             243.712           3.988e+00     
-178.000         -90.000            1.181e-02           1.090e-02             293.250           9.016e-04             236.051           4.244e+00     
-177.000         -90.000            1.848e-02           1.641e-02             293.961           2.068e-03             230.135           3.224e+00     
-176.000         -90.000            1.947e-02           1.529e-02             295.473           4.177e-03             225.799           2.128e+00     
-175.000         -90.000            1.572e-02           8.480e-03             299.179           7.237e-03             222.157           1.274e+00     
-174.000         -90.000            1.259e-02           1.728e-03             314.414           1.086e-02             218.664           2.524e+00     
-173.000         -90.000            1.529e-02           9.720e-04              73.275           1.431e-02             215.010           6.463e+00     
-172.000         -90.000            2.422e-02           7.471e-03              97.918           1.675e-02             210.987           1.797e+00     
-171.000         -90.000            3.423e-02           1.670e-02             103.609           1.753e-02             206.413           1.254e+00     
-170.000         -90.000            3.831e-02           2.185e-02             107.457           1.646e-02             201.079           1.168e+00     
-169.000         -90.000            3.313e-02           1.922e-02             112.352           1.391e-02             194.717           1.234e+00     
-168.000         -90.000            2.170e-02           1.107e-02             121.841           1.063e-02             186.991           1.566e+00     
-167.000         -90.000            1.131e-02           3.863e-03             148.901           7.444e-03             177.578           4.153e+00     
-166.000         -90.000            8.092e-03           3.194e-03             214.731           4.898e-03             166.482           2.309e+00     
-165.000         -90.000            1.263e-02           9.482e-03             248.624           3.147e-03             154.785           1.744e+00     
-164.000         -90.000            1.979e-02           1.776e-02             261.223           2.026e-03             145.537           3.363e+00     
-163.000         -90.000            2.299e-02           2.167e-02             269.646           1.318e-03             143.984           5.099e+00     
