Theta [deg.]  Phi   [deg.]  Abs(Dir.)[      ]   Abs(Theta)[      ]  Phase(Theta)[deg.]  Abs(Phi  )[      ]  Phase(Phi  )[deg.]  Ax.Ratio[      ]    
------------------------------------------------------------------------------------------------------------------------------------------------------
-180.000         -90.000            1.980e-04           2.875e-07             155.924           1.977e-04             278.450           3.111e+01     
-179.000         -90.000            2.635e-03           2.416e-03             313.646           2.196e-04             278.369           6.101e+00     
-178.000         -90.000            8.811e-03           8.521e-03             313.944           2.900e-04             278.117           9.470e+00     
-177.000         -90.000            1.562e-02           1.520e-02             314.342           4.201e-04             277.530           1.022e+01     
-176.000         -90.000            1.966e-02           1.904e-02             315.010           6.209e-04             276.485           9.070e+00     
-175.000         -90.000            1.900e-02           1.810e-02             316.207           8.940e-04             274.914           7.013e+00     
-174.000         -90.000            1.412e-02           1.289e-02             318.564           1.226e-03             272.775           4.745e+00     
-173.000         -90.000            7.703e-03           6.120e-03             324.196           1.583e-03             270.002           2.678e+00     
-172.000         -90.000            3.226e-03           1.303e-03             346.161           1.923e-03             266.520           1.306e+00     
-171.000         -90.000            3.197e-03           1.002e-03              83.450           2.195e-03             262.212           9.978e+01     
-170.000         -90.000            7.881e-03           5.518e-03             111.368           2.363e-03             256.922           3.579e+00     
-169.000         -90.000            1.516e-02           1.275e-02             118.314           2.411e-03             250.449           3.392e+00     
-168.000         -90.000            2.159e-02           1.924e-02             121.871           2.350e-03             242.558           3.443e+00     
-167.000         -90.000            2.415e-02           2.193e-02             124.857           2.218e-03             233.028           3.345e+00     
-166.000         -90.000            2.169e-02           1.962e-02             128.589           2.066e-03             221.748           3.088e+00     
-165.000         -90.000            1.553e-02           1.359e-02             134.814           1.944e-03             208.882           2.784e+00     
-164.000         -90.000            8.793e-03           6.907e-03             148.019           1.886e-03             194.985           2.999e+00     
-163.000         -90.000            4.852e-03           2.952e-03             182.195           1.900e-03             180.902           9.081e+01     
