Theta [deg.]  Phi   [deg.]  Abs(Dir.)[      ]   Abs(Theta)[      ]  Phase(Theta)[deg.]  Abs(Phi  )[      ]  Phase(Phi  )[deg.]  Ax.Ratio[      ]    
------------------------------------------------------------------------------------------------------------------------------------------------------
-180.000         -90.000            1.816e-03           1.616e-06             179.619           1.814e-03             147.875           6.373e+01     
-179.000         -90.000            9.481e-03           7.682e-03              25.168           1.799e-03             146.390           2.597e+00     
-178.000         -90.000            2.855e-02           2.679e-02              25.326           1.758e-03             141.692           4.417e+00     
-177.000         -90.000            4.836e-02           4.665e-02              25.934           1.714e-03             134.047           5.509e+00     
-176.000         -90.000            5.789e-02           5.620e-02              27.127           1.692e-03             123.973           5.806e+00     
-175.000         -90.000            5.203e-02           5.032e-02              29.398           1.708e-03             112.202           5.474e+00     
-174.000         -90.000            3.437e-02           3.262e-02              34.137           1.757e-03              99.444           4.788e+00     
-173.000         -90.000            1.520e-02           1.338e-02              46.579           1.825e-03              86.184           4.610e+00     
-172.000         -90.000            5.651e-03           3.761e-03              94.270           1.890e-03              72.600           5.560e+00     
-171.000         -90.000            1.147e-02           9.524e-03             158.334           1.942e-03              58.695           2.262e+00     
-170.000         -90.000            2.984e-02           2.786e-02             176.053           1.979e-03              44.466           5.179e+00     
-169.000         -90.000            5.100e-02           4.900e-02             182.723           2.004e-03              30.032           1.113e+01     
-168.000         -90.000            6.368e-02           6.167e-02             186.725           2.013e-03              15.636           3.687e+01     
-167.000         -90.000            6.126e-02           5.927e-02             190.476           1.990e-03               1.528           3.624e+01     
-166.000         -90.000            4.531e-02           4.340e-02             195.809           1.909e-03             347.832           1.052e+01     
-165.000         -90.000            2.459e-02           2.285e-02             206.460           1.744e-03             334.470           4.734e+00     
-164.000         -90.000            1.015e-02           8.666e-03             235.201           1.488e-03             321.106           2.422e+00     
-163.000         -90.000            9.359e-03           8.198e-03             292.612           1.161e-03             307.107           1.204e+01     
