Theta [deg.]  Phi   [deg.]  Abs(Dir.)[      ]   Abs(Theta)[      ]  Phase(Theta)[deg.]  Abs(Phi  )[      ]  Phase(Phi  )[deg.]  Ax.Ratio[      ]    
------------------------------------------------------------------------------------------------------------------------------------------------------
-180.000         -90.000            5.290e-03           2.327e-07             290.805           5.290e-03             229.867           1.725e+02     
-179.000         -90.000            9.348e-03           3.999e-03             184.459           5.349e-03             231.216           2.349e+00     
-178.000         -90.000            1.909e-02           1.352e-02             184.536           5.561e-03             234.963           2.446e+00     
-177.000         -90.000            2.864e-02           2.265e-02             185.042           5.986e-03             240.301           2.610e+00     
-176.000         -90.000            3.239e-02           2.574e-02             186.107           6.657e-03             246.125           2.449e+00     
-175.000         -90.000            2.848e-02           2.096e-02             188.281           7.522e-03             251.423           2.056e+00     
-174.000         -90.000            1.981e-02           1.139e-02             193.375           8.419e-03             255.576           1.698e+00     
-173.000         -90.000            1.221e-02           3.101e-03             210.762           9.105e-03             258.369           2.746e+00     
-172.000         -90.000            1.059e-02           1.257e-03             296.150           9.329e-03             259.839           5.022e+00     
-171.000         -90.000            1.589e-02           6.973e-03             336.034           8.919e-03             260.125           1.320e+00     
-170.000         -90.000            2.449e-02           1.663e-02             344.883           7.856e-03             259.384           1.467e+00     
-169.000         -90.000            3.046e-02           2.417e-02             349.008           6.284e-03             257.775           1.962e+00     
-168.000         -90.000            2.937e-02           2.490e-02             352.410           4.469e-03             255.495           2.385e+00     
-167.000         -90.000            2.114e-02           1.841e-02             357.191           2.724e-03             252.871           2.711e+00     
-166.000         -90.000            1.022e-02           8.907e-03               7.664           1.315e-03             250.750           3.018e+00     
-165.000         -90.000            3.037e-03           2.629e-03              43.609           4.077e-04             252.573           5.887e+00     
-164.000         -90.000            4.155e-03           4.108e-03             112.977           4.686e-05             290.969           2.703e+02     
-163.000         -90.000            1.358e-02           1.339e-02             136.298           1.845e-04              13.260           1.020e+01     
