Theta [deg.]  Phi   [deg.]  Abs(Dir.)[      ]   Abs(Theta)[      ]  Phase(Theta)[deg.]  Abs(Phi  )[      ]  Phase(Phi  )[deg.]  Ax.Ratio[      ]    
------------------------------------------------------------------------------------------------------------------------------------------------------
-180.000         -90.000            1.947e-04           3.959e-07             220.376           1.943e-04             114.155           2.308e+01     
-179.000         -90.000            5.708e-03           5.459e-03             329.622           2.484e-04             106.255           6.994e+00     
-178.000         -90.000            1.856e-02           1.808e-02             330.235           4.831e-04              91.764           7.230e+00     
-177.000         -90.000            3.013e-02           2.907e-02             331.080           1.062e-03              80.806           5.582e+00     
-176.000         -90.000            3.297e-02           3.086e-02             332.589           2.113e-03              73.888           3.909e+00     
-175.000         -90.000            2.597e-02           2.237e-02             335.666           3.597e-03              69.202           2.500e+00     
-174.000         -90.000            1.497e-02           9.702e-03             343.639           5.266e-03              65.576           1.401e+00     
-173.000         -90.000            8.437e-03           1.720e-03              20.953           6.718e-03              62.421           3.460e+00     
-172.000         -90.000            1.136e-02           3.807e-03             109.599           7.550e-03              59.453           2.330e+00     
-171.000         -90.000            2.164e-02           1.412e-02             128.027           7.519e-03              56.570           1.584e+00     
-170.000         -90.000            3.164e-02           2.500e-02             134.069           6.638e-03              53.817           1.989e+00     
-169.000         -90.000            3.366e-02           2.850e-02             138.020           5.162e-03              51.445           2.356e+00     
-168.000         -90.000            2.557e-02           2.209e-02             142.808           3.487e-03              50.118           2.520e+00     
-167.000         -90.000            1.251e-02           1.051e-02             152.932           2.003e-03              51.518           2.358e+00     
-166.000         -90.000            3.602e-03           2.620e-03             191.796           9.814e-04              60.018           2.632e+00     
-165.000         -90.000            5.785e-03           5.248e-03             267.952           5.372e-04              83.660           4.601e+01     
-164.000         -90.000            1.905e-02           1.839e-02             288.611           6.529e-04             112.957           7.252e+01     
-163.000         -90.000            3.619e-02           3.495e-02             295.602           1.239e-03             125.521           3.190e+01     
