Theta [deg.]  Phi   [deg.]  Abs(Dir.)[      ]   Abs(Theta)[      ]  Phase(Theta)[deg.]  Abs(Phi  )[      ]  Phase(Phi  )[deg.]  Ax.Ratio[      ]    
------------------------------------------------------------------------------------------------------------------------------------------------------
-180.000         -90.000            1.808e-04           2.206e-06              24.734           1.786e-04             143.278           1.027e+01     
-179.000         -90.000            3.656e-03           3.360e-03             230.813           2.955e-04             140.056           3.373e+00     
-178.000         -90.000            1.171e-02           1.090e-02             230.785           8.064e-04             135.228           3.697e+00     
-177.000         -90.000            1.839e-02           1.630e-02             231.331           2.085e-03             131.619           2.849e+00     
-176.000         -90.000            1.951e-02           1.504e-02             232.691           4.465e-03             128.634           1.938e+00     
-175.000         -90.000            1.616e-02           8.201e-03             236.206           7.956e-03             125.687           1.442e+00     
-174.000         -90.000            1.369e-02           1.593e-03             251.363           1.209e-02             122.475           3.738e+00     
-173.000         -90.000            1.698e-02           9.670e-04              12.561           1.601e-02             118.819           4.260e+00     
-172.000         -90.000            2.595e-02           7.238e-03              35.520           1.872e-02             114.563           1.674e+00     
-171.000         -90.000            3.520e-02           1.571e-02              40.897           1.949e-02             109.524           1.488e+00     
-170.000         -90.000            3.805e-02           1.986e-02              44.691           1.819e-02             103.444           1.780e+00     
-169.000         -90.000            3.194e-02           1.664e-02              49.876           1.530e-02              95.962           2.354e+00     
-168.000         -90.000            2.061e-02           8.873e-03              60.839           1.174e-02              86.602           4.420e+00     
-167.000         -90.000            1.140e-02           2.975e-03              94.858           8.422e-03              74.951           6.534e+00     
-166.000         -90.000            9.746e-03           3.829e-03             160.377           5.916e-03              61.207           1.312e+00     
-165.000         -90.000            1.520e-02           1.093e-02             186.912           4.267e-03              47.096           3.129e+00     
-164.000         -90.000            2.202e-02           1.885e-02             197.407           3.166e-03              36.037           8.808e+00     
-163.000         -90.000            2.388e-02           2.157e-02             204.923           2.305e-03              32.136           2.693e+01     
