Theta [deg.]  Phi   [deg.]  Abs(Dir.)[      ]   Abs(Theta)[      ]  Phase(Theta)[deg.]  Abs(Phi  )[      ]  Phase(Phi  )[deg.]  Ax.Ratio[      ]    
------------------------------------------------------------------------------------------------------------------------------------------------------
-180.000         -90.000            1.948e-02           2.398e-08             208.404           1.948e-02              46.335           3.162e+02     
-179.000         -90.000            2.401e-02           4.741e-03              70.614           1.927e-02              45.907           5.839e+00     
-178.000         -90.000            3.550e-02           1.686e-02              70.744           1.864e-02              44.642           4.320e+00     
-177.000         -90.000            4.852e-02           3.091e-02              71.066           1.761e-02              42.544           4.112e+00     
-176.000         -90.000            5.680e-02           4.057e-02              71.649           1.624e-02              39.616           3.918e+00     
-175.000         -90.000            5.606e-02           4.150e-02              72.676           1.456e-02              35.851           3.521e+00     
-174.000         -90.000            4.597e-02           3.332e-02              74.570           1.265e-02              31.207           2.919e+00     
-173.000         -90.000            3.036e-02           1.978e-02              78.502           1.059e-02              25.584           2.169e+00     
-172.000         -90.000            1.559e-02           7.119e-03              89.340           8.470e-03              18.771           1.429e+00     
-171.000         -90.000            7.770e-03           1.350e-03             143.942           6.420e-03              10.344           3.345e+00     
-170.000         -90.000            1.012e-02           5.551e-03             215.793           4.571e-03             359.479           3.067e+00     
-169.000         -90.000            2.159e-02           1.851e-02             230.073           3.073e-03             344.633           2.788e+00     
-168.000         -90.000            3.732e-02           3.525e-02             235.395           2.071e-03             323.407           4.129e+00     
-167.000         -90.000            5.077e-02           4.909e-02             238.703           1.684e-03             294.857           6.572e+00     
-166.000         -90.000            5.660e-02           5.462e-02             241.782           1.985e-03             265.145           1.363e+01     
-165.000         -90.000            5.287e-02           4.989e-02             245.695           2.978e-03             241.907           6.563e+01     
-164.000         -90.000            4.184e-02           3.726e-02             251.888           4.583e-03             225.367           7.029e+00     
-163.000         -90.000            2.901e-02           2.237e-02             263.499           6.636e-03             213.035           2.719e+00     
