Theta [deg.]  Phi   [deg.]  Abs(Dir.)[      ]   Abs(Theta)[      ]  Phase(Theta)[deg.]  Abs(Phi  )[      ]  Phase(Phi  )[deg.]  Ax.Ratio[      ]    
------------------------------------------------------------------------------------------------------------------------------------------------------
-180.000         -90.000            1.245e-03           1.211e-07             181.454           1.245e-03             275.101           1.016e+02     
-179.000         -90.000            5.189e-03           3.944e-03             249.002           1.244e-03             274.241           5.304e+00     
-178.000         -90.000            1.589e-02           1.464e-02             249.263           1.245e-03             271.704           9.642e+00     
-177.000         -90.000            3.035e-02           2.909e-02             249.520           1.256e-03             267.620           1.610e+01     
-176.000         -90.000            4.456e-02           4.328e-02             249.881           1.285e-03             262.236           2.790e+01     
-175.000         -90.000            5.461e-02           5.326e-02             250.425           1.342e-03             255.918           6.745e+01     
-174.000         -90.000            5.777e-02           5.634e-02             251.263           1.435e-03             249.113           1.713e+02     
-173.000         -90.000            5.331e-02           5.174e-02             252.597           1.564e-03             242.257           3.298e+01     
-172.000         -90.000            4.259e-02           4.087e-02             254.818           1.725e-03             235.689           1.541e+01     
-171.000         -90.000            2.877e-02           2.686e-02             258.854           1.906e-03             229.596           8.101e+00     
-170.000         -90.000            1.576e-02           1.367e-02             267.302           2.090e-03             224.053           4.057e+00     
-169.000         -90.000            7.228e-03           4.973e-03             289.809           2.254e-03             219.042           1.697e+00     
-168.000         -90.000            5.519e-03           3.140e-03             346.488           2.379e-03             214.499           2.278e+00     
-167.000         -90.000            1.104e-02           8.597e-03              25.092           2.446e-03             210.343           2.627e+01     
-166.000         -90.000            2.219e-02           1.975e-02              38.478           2.443e-03             206.491           1.532e+01     
-165.000         -90.000            3.582e-02           3.346e-02              44.562           2.367e-03             202.872           1.080e+01     
-164.000         -90.000            4.816e-02           4.594e-02              48.189           2.220e-03             199.423           9.808e+00     
-163.000         -90.000            5.585e-02           5.384e-02              50.960           2.015e-03             196.092           9.272e+00     
