Theta [deg.]  Phi   [deg.]  Abs(Dir.)[      ]   Abs(Theta)[      ]  Phase(Theta)[deg.]  Abs(Phi  )[      ]  Phase(Phi  )[deg.]  Ax.Ratio[      ]    
------------------------------------------------------------------------------------------------------------------------------------------------------
-180.000         -90.000            2.423e-02           1.524e-09             274.655           2.423e-02             161.184           3.162e+02     
-179.000         -90.000            2.716e-02           3.458e-03             158.726           2.370e-02             160.531           9.525e+01     
-178.000         -90.000            3.506e-02           1.288e-02             158.819           2.218e-02             158.522           3.162e+02     
-177.000         -90.000            4.555e-02           2.565e-02             159.019           1.989e-02             154.987           2.864e+01     
-176.000         -90.000            5.543e-02           3.825e-02             159.351           1.718e-02             149.632           1.273e+01     
-175.000         -90.000            6.162e-02           4.717e-02             159.870           1.445e-02             142.043           7.578e+00     
-174.000         -90.000            6.208e-02           4.996e-02             160.675           1.212e-02             131.779           5.022e+00     
-173.000         -90.000            5.640e-02           4.585e-02             161.953           1.055e-02             118.694           3.453e+00     
-172.000         -90.000            4.603e-02           3.602e-02             164.097           1.001e-02             103.468           2.357e+00     
-171.000         -90.000            3.390e-02           2.325e-02             168.000           1.064e-02              87.782           1.535e+00     
-170.000         -90.000            2.368e-02           1.124e-02             176.476           1.244e-02              73.410           1.266e+00     
-169.000         -90.000            1.881e-02           3.549e-03             201.686           1.526e-02              61.199           3.751e+00     
-168.000         -90.000            2.155e-02           2.705e-03             268.764           1.885e-02              51.076           4.725e+00     
-167.000         -90.000            3.233e-02           9.473e-03             303.316           2.286e-02              42.586           1.602e+00     
-166.000         -90.000            4.958e-02           2.265e-02             314.261           2.692e-02              35.253           1.197e+00     
-165.000         -90.000            7.007e-02           3.937e-02             319.380           3.070e-02              28.695           1.478e+00     
-164.000         -90.000            8.969e-02           5.583e-02             322.577           3.387e-02              22.630           1.836e+00     
-163.000         -90.000            1.044e-01           6.821e-02             325.152           3.621e-02              16.859           2.228e+00     
