Theta [deg.]  Phi   [deg.]  Abs(Dir.)[      ]   Abs(Theta)[      ]  Phase(Theta)[deg.]  Abs(Phi  )[      ]  Phase(Phi  )[deg.]  Ax.Ratio[      ]    
------------------------------------------------------------------------------------------------------------------------------------------------------
-180.000         -90.000            4.239e-04           2.011e-08             205.421           4.239e-04             320.732           1.606e+02     
-179.000         -90.000            3.449e-03           3.041e-03             187.662           4.078e-04             318.004           3.800e+00     
-178.000         -90.000            1.193e-02           1.156e-02             187.784           3.711e-04             309.467           6.618e+00     
-177.000         -90.000            2.429e-02           2.394e-02             187.996           3.489e-04             294.313           8.641e+00     
-176.000         -90.000            3.823e-02           3.783e-02             188.319           3.948e-04             274.095           9.816e+00     
-175.000         -90.000            5.120e-02           5.062e-02             188.785           5.744e-04             254.357           1.033e+01     
-174.000         -90.000            6.087e-02           5.992e-02             189.442           9.565e-04             239.244           1.043e+01     
-173.000         -90.000            6.561e-02           6.401e-02             190.369           1.604e-03             228.643           1.036e+01     
-172.000         -90.000            6.476e-02           6.219e-02             191.691           2.566e-03             221.063           1.036e+01     
-171.000         -90.000            5.878e-02           5.491e-02             193.624           3.869e-03             215.313           1.082e+01     
-170.000         -90.000            4.915e-02           4.364e-02             196.561           5.510e-03             210.654           1.294e+01     
-169.000         -90.000            3.808e-02           3.062e-02             201.317           7.458e-03             206.651           2.707e+01     
-168.000         -90.000            2.806e-02           1.841e-02             209.762           9.647e-03             203.040           1.793e+01     
-167.000         -90.000            2.143e-02           9.442e-03             226.672           1.199e-02             199.655           4.196e+00     
-166.000         -90.000            1.989e-02           5.534e-03             260.712           1.436e-02             196.388           1.968e+00     
-165.000         -90.000            2.422e-02           7.585e-03             300.136           1.663e-02             193.165           1.647e+00     
-164.000         -90.000            3.408e-02           1.540e-02             322.199           1.867e-02             189.929           2.276e+00     
-163.000         -90.000            4.812e-02           2.776e-02             333.145           2.036e-02             186.632           3.372e+00     
