Theta [deg.]  Phi   [deg.]  Abs(Dir.)[      ]   Abs(Theta)[      ]  Phase(Theta)[deg.]  Abs(Phi  )[      ]  Phase(Phi  )[deg.]  Ax.Ratio[      ]    
------------------------------------------------------------------------------------------------------------------------------------------------------
-180.000         -90.000            2.386e-03           5.960e-08             301.046           2.386e-03             276.554           3.162e+02     
-179.000         -90.000            4.908e-03           2.513e-03             301.323           2.395e-03             276.611           4.567e+00     
-178.000         -90.000            1.177e-02           9.341e-03             301.444           2.425e-03             276.719           5.736e+00     
-177.000         -90.000            2.116e-02           1.868e-02             301.666           2.473e-03             276.844           7.277e+00     
-176.000         -90.000            3.062e-02           2.809e-02             302.026           2.534e-03             276.940           8.443e+00     
-175.000         -90.000            3.770e-02           3.510e-02             302.583           2.602e-03             276.953           9.009e+00     
-174.000         -90.000            4.059e-02           3.792e-02             303.441           2.671e-03             276.828           8.891e+00     
-173.000         -90.000            3.860e-02           3.587e-02             304.788           2.731e-03             276.517           8.111e+00     
-172.000         -90.000            3.236e-02           2.958e-02             306.969           2.774e-03             275.967           6.788e+00     
-171.000         -90.000            2.357e-02           2.078e-02             310.759           2.790e-03             275.165           5.123e+00     
-170.000         -90.000            1.462e-02           1.185e-02             318.108           2.772e-03             274.078           3.374e+00     
-169.000         -90.000            7.891e-03           5.176e-03             335.121           2.716e-03             272.691           1.827e+00     
-168.000         -90.000            5.153e-03           2.535e-03              17.651           2.618e-03             270.994           1.344e+00     
-167.000         -90.000            7.105e-03           4.625e-03              63.567           2.480e-03             268.984           4.674e+00     
-166.000         -90.000            1.321e-02           1.090e-02              82.791           2.306e-03             266.658           3.904e+01     
-165.000         -90.000            2.184e-02           1.974e-02              91.126           2.104e-03             264.020           2.736e+01     
-164.000         -90.000            3.075e-02           2.886e-02              95.710           1.882e-03             261.079           1.645e+01     
-163.000         -90.000            3.761e-02           3.596e-02              98.827           1.652e-03             257.846           1.355e+01     
