Theta [deg.]  Phi   [deg.]  Abs(Dir.)[      ]   Abs(Theta)[      ]  Phase(Theta)[deg.]  Abs(Phi  )[      ]  Phase(Phi  )[deg.]  Ax.Ratio[      ]    
------------------------------------------------------------------------------------------------------------------------------------------------------
-180.000         -90.000            1.344e-03           6.689e-07              68.366           1.344e-03             122.390           5.539e+01     
-179.000         -90.000            5.472e-03           4.125e-03             272.384           1.347e-03             121.615           4.533e+00     
-178.000         -90.000            1.655e-02           1.519e-02             272.359           1.357e-03             119.363           7.902e+00     
-177.000         -90.000            3.058e-02           2.920e-02             272.551           1.374e-03             115.777           1.216e+01     
-176.000         -90.000            4.250e-02           4.111e-02             272.944           1.399e-03             111.064           1.797e+01     
-175.000         -90.000            4.807e-02           4.664e-02             273.637           1.431e-03             105.464           2.867e+01     
-174.000         -90.000            4.532e-02           4.386e-02             274.842           1.464e-03              99.205           7.432e+01     
-173.000         -90.000            3.535e-02           3.385e-02             277.024           1.491e-03              92.453           6.239e+01     
-172.000         -90.000            2.185e-02           2.034e-02             281.434           1.504e-03              85.302           1.414e+01     
-171.000         -90.000            9.801e-03           8.308e-03             292.499           1.494e-03              77.753           4.668e+00     
-170.000         -90.000            3.655e-03           2.200e-03             333.441           1.455e-03              69.734           1.264e+00     
-169.000         -90.000            5.725e-03           4.335e-03              42.111           1.390e-03              61.118           7.019e+00     
-168.000         -90.000            1.537e-02           1.407e-02              62.574           1.303e-03              51.748           1.906e+01     
-167.000         -90.000            2.924e-02           2.803e-02              69.666           1.207e-03              41.483           1.055e+01     
-166.000         -90.000            4.247e-02           4.135e-02              73.359           1.117e-03              30.250           9.035e+00     
-165.000         -90.000            5.042e-02           4.937e-02              76.045           1.044e-03              18.132           8.167e+00     
-164.000         -90.000            5.035e-02           4.935e-02              78.766           9.984e-04               5.427           7.351e+00     
-163.000         -90.000            4.239e-02           4.141e-02              82.442           9.840e-04             352.625           6.487e+00     
