Theta [deg.]  Phi   [deg.]  Abs(Dir.)[      ]   Abs(Theta)[      ]  Phase(Theta)[deg.]  Abs(Phi  )[      ]  Phase(Phi  )[deg.]  Ax.Ratio[      ]    
------------------------------------------------------------------------------------------------------------------------------------------------------
-180.000         -90.000            3.640e-03           1.379e-07             266.971           3.640e-03             268.972           3.162e+02     
-179.000         -90.000            5.897e-03           2.269e-03             174.020           3.628e-03             268.357           1.280e+00     
-178.000         -90.000            1.139e-02           7.794e-03             174.027           3.592e-03             266.525           1.477e+00     
-177.000         -90.000            1.697e-02           1.344e-02             174.423           3.530e-03             263.503           1.951e+00     
-176.000         -90.000            1.944e-02           1.600e-02             175.267           3.441e-03             259.326           2.174e+00     
-175.000         -90.000            1.736e-02           1.404e-02             176.930           3.322e-03             254.033           2.141e+00     
-174.000         -90.000            1.187e-02           8.696e-03             180.532           3.173e-03             247.664           1.936e+00     
-173.000         -90.000            6.073e-03           3.080e-03             190.899           2.993e-03             240.243           2.177e+00     
-172.000         -90.000            3.298e-03           5.106e-04             250.362           2.787e-03             231.787           8.561e+00     
-171.000         -90.000            5.222e-03           2.661e-03             322.325           2.561e-03             222.293           1.194e+00     
-170.000         -90.000            1.093e-02           8.606e-03             334.968           2.321e-03             211.744           2.527e+00     
-169.000         -90.000            1.739e-02           1.532e-02             339.920           2.079e-03             200.094           4.559e+00     
-168.000         -90.000            2.117e-02           1.932e-02             343.437           1.844e-03             187.289           8.654e+00     
-167.000         -90.000            2.024e-02           1.861e-02             347.420           1.627e-03             173.272           3.604e+01     
-166.000         -90.000            1.516e-02           1.372e-02             353.746           1.439e-03             158.022           1.251e+01     
-165.000         -90.000            8.755e-03           7.467e-03               6.701           1.288e-03             141.601           3.717e+00     
-164.000         -90.000            4.603e-03           3.427e-03              38.624           1.176e-03             124.188           1.718e+00     
-163.000         -90.000            5.123e-03           4.020e-03              88.612           1.103e-03             106.070           7.985e+00     
