Theta [deg.]  Phi   [deg.]  Abs(Dir.)[      ]   Abs(Theta)[      ]  Phase(Theta)[deg.]  Abs(Phi  )[      ]  Phase(Phi  )[deg.]  Ax.Ratio[      ]    
------------------------------------------------------------------------------------------------------------------------------------------------------
-180.000         -90.000            1.460e-04           3.598e-08              54.852           1.459e-04              27.253           1.375e+02     
-179.000         -90.000            5.446e-03           5.275e-03             167.039           1.708e-04              18.829           1.080e+01     
-178.000         -90.000            1.793e-02           1.764e-02             167.422           2.914e-04               1.543           3.239e+01     
-177.000         -90.000            2.956e-02           2.895e-02             168.081           6.086e-04             347.523           3.162e+02     
-176.000         -90.000            3.297e-02           3.176e-02             169.315           1.203e-03             338.865           2.937e+01     
-175.000         -90.000            2.631e-02           2.426e-02             171.839           2.053e-03             333.477           1.175e+01     
-174.000         -90.000            1.452e-02           1.151e-02             178.196           3.008e-03             329.794           4.986e+00     
-173.000         -90.000            6.025e-03           2.208e-03             206.014           3.817e-03             327.018           1.893e+00     
-172.000         -90.000            7.243e-03           3.018e-03             303.023           4.225e-03             324.790           5.280e+00     
-171.000         -90.000            1.825e-02           1.417e-02             324.880           4.080e-03             323.019           7.388e+01     
-170.000         -90.000            3.257e-02           2.917e-02             330.800           3.400e-03             321.864           2.101e+01     
-169.000         -90.000            4.125e-02           3.887e-02             333.864           2.381e-03             321.933           2.069e+01     
-168.000         -90.000            3.851e-02           3.718e-02             336.543           1.325e-03             325.044           2.748e+01     
-167.000         -90.000            2.562e-02           2.508e-02             340.482           5.391e-04             337.592           1.382e+02     
-166.000         -90.000            1.032e-02           1.008e-02             349.946           2.410e-04              19.070           1.353e+01     
-165.000         -90.000            2.262e-03           1.757e-03              36.423           5.055e-04              61.853           5.406e+00     
-164.000         -90.000            7.212e-03           5.943e-03             118.022           1.269e-03              73.613           3.464e+00     
-163.000         -90.000            2.355e-02           2.117e-02             133.921           2.375e-03              74.169           3.564e+00     
