Theta [deg.]  Phi   [deg.]  Abs(Dir.)[      ]   Abs(Theta)[      ]  Phase(Theta)[deg.]  Abs(Phi  )[      ]  Phase(Phi  )[deg.]  Ax.Ratio[      ]    
------------------------------------------------------------------------------------------------------------------------------------------------------
-180.000         -90.000            1.902e-03           4.851e-08              23.118           1.902e-03             241.344           3.162e+02     
-179.000         -90.000            4.257e-03           2.357e-03             315.057           1.900e-03             240.488           1.341e+00     
-178.000         -90.000            1.026e-02           8.364e-03             315.229           1.896e-03             238.004           2.184e+00     
-177.000         -90.000            1.724e-02           1.535e-02             315.751           1.894e-03             234.049           2.885e+00     
-176.000         -90.000            2.210e-02           2.020e-02             316.702           1.899e-03             228.875           3.264e+00     
-175.000         -90.000            2.270e-02           2.079e-02             318.361           1.910e-03             222.786           3.318e+00     
-174.000         -90.000            1.883e-02           1.691e-02             321.373           1.921e-03             216.085           3.103e+00     
-173.000         -90.000            1.231e-02           1.039e-02             327.491           1.921e-03             209.014           2.775e+00     
-172.000         -90.000            6.217e-03           4.326e-03             343.037           1.892e-03             201.703           3.163e+00     
-171.000         -90.000            3.536e-03           1.716e-03              31.902           1.820e-03             194.161           6.410e+00     
-170.000         -90.000            5.833e-03           4.137e-03              84.850           1.696e-03             186.279           1.635e+00     
-169.000         -90.000            1.255e-02           1.103e-02             102.281           1.523e-03             177.845           2.807e+00     
-168.000         -90.000            2.123e-02           1.992e-02             109.292           1.311e-03             168.539           4.617e+00     
-167.000         -90.000            2.849e-02           2.740e-02             113.225           1.083e-03             157.927           7.295e+00     
-166.000         -90.000            3.147e-02           3.061e-02             116.229           8.657e-04             145.465           1.244e+01     
-165.000         -90.000            2.902e-02           2.833e-02             119.401           6.821e-04             130.567           3.405e+01     
-164.000         -90.000            2.211e-02           2.156e-02             123.889           5.501e-04             112.878           3.358e+01     
-163.000         -90.000            1.348e-02           1.300e-02             131.931           4.775e-04              92.795           8.452e+00     
