Theta [deg.]  Phi   [deg.]  Abs(Dir.)[      ]   Abs(Theta)[      ]  Phase(Theta)[deg.]  Abs(Phi  )[      ]  Phase(Phi  )[deg.]  Ax.Ratio[      ]    
------------------------------------------------------------------------------------------------------------------------------------------------------
-180.000         -90.000            1.627e-04           2.662e-08             111.726           1.627e-04             277.739           3.162e+02     
-179.000         -90.000            5.710e-03           5.576e-03             136.779           1.346e-04             277.654           1.035e+01     
-178.000         -90.000            1.918e-02           1.911e-02             136.978           6.821e-05             277.657           2.647e+01     
-177.000         -90.000            3.296e-02           3.296e-02             137.331           9.007e-06             280.332           1.005e+02     
-176.000         -90.000            3.936e-02           3.934e-02             137.971           1.436e-05              88.659           6.904e+01     
-175.000         -90.000            3.488e-02           3.475e-02             139.174           1.318e-04              89.914           2.146e+01     
-174.000         -90.000            2.224e-02           2.187e-02             141.702           3.786e-04              88.296           9.525e+00     
-173.000         -90.000            8.713e-03           7.983e-03             148.686           7.296e-04              85.825           3.793e+00     
-172.000         -90.000            1.946e-03           8.276e-04             194.214           1.119e-03              82.664           1.514e+00     
-171.000         -90.000            5.648e-03           4.193e-03             290.224           1.455e-03              78.749           4.138e+00     
-170.000         -90.000            1.754e-02           1.589e-02             302.508           1.651e-03              73.880           4.334e+00     
-169.000         -90.000            3.077e-02           2.912e-02             306.959           1.651e-03              67.675           4.960e+00     
-168.000         -90.000            3.785e-02           3.639e-02             310.239           1.461e-03              59.428           5.308e+00     
-167.000         -90.000            3.495e-02           3.381e-02             314.214           1.149e-03              47.808           5.435e+00     
-166.000         -90.000            2.404e-02           2.321e-02             320.993           8.338e-04              30.487           5.658e+00     
-165.000         -90.000            1.173e-02           1.108e-02             336.327           6.466e-04               5.090           8.994e+00     
-164.000         -90.000            5.553e-03           4.865e-03              18.359           6.885e-04             335.044           4.184e+00     
-163.000         -90.000            9.751e-03           8.760e-03              69.942           9.909e-04             309.830           3.544e+00     
