Theta [deg.]  Phi   [deg.]  Abs(Dir.)[      ]   Abs(Theta)[      ]  Phase(Theta)[deg.]  Abs(Phi  )[      ]  Phase(Phi  )[deg.]  Ax.Ratio[      ]    
------------------------------------------------------------------------------------------------------------------------------------------------------
-180.000         -90.000            9.213e-03           1.807e-07             256.448           9.213e-03             357.447           2.300e+02     
-179.000         -90.000            1.241e-02           3.165e-03             247.644           9.244e-03             357.445           1.917e+00     
-178.000         -90.000            2.005e-02           1.073e-02             247.934           9.322e-03             357.409           1.425e+00     
-177.000         -90.000            2.769e-02           1.830e-02             248.576           9.391e-03             357.267           1.608e+00     
-176.000         -90.000            3.083e-02           2.147e-02             249.770           9.364e-03             356.920           1.681e+00     
-175.000         -90.000            2.756e-02           1.842e-02             252.038           9.140e-03             356.254           1.543e+00     
-174.000         -90.000            1.962e-02           1.100e-02             256.927           8.623e-03             355.157           1.208e+00     
-173.000         -90.000            1.144e-02           3.687e-03             271.391           7.757e-03             353.501           1.489e+00     
-172.000         -90.000            7.576e-03           1.025e-03             340.386           6.551e-03             351.128           1.562e+01     
-171.000         -90.000            1.010e-02           5.005e-03              35.043           5.093e-03             347.791           2.286e+00     
-170.000         -90.000            1.743e-02           1.388e-02              47.159           3.548e-03             343.024           2.331e+00     
-169.000         -90.000            2.522e-02           2.309e-02              52.515           2.122e-03             335.781           3.407e+00     
-168.000         -90.000            2.886e-02           2.784e-02              56.548           1.018e-03             323.200           5.239e+00     
-167.000         -90.000            2.610e-02           2.572e-02              61.245           3.815e-04             295.719           1.014e+01     
-166.000         -90.000            1.838e-02           1.811e-02              68.845           2.638e-04             239.951           5.435e+01     
-165.000         -90.000            1.008e-02           9.474e-03              84.742           6.068e-04             199.943           4.420e+00     
-164.000         -90.000            6.166e-03           4.904e-03             122.180           1.262e-03             181.230           2.488e+00     
-163.000         -90.000            9.441e-03           7.408e-03             168.099           2.034e-03             169.167           1.305e+02     
