Theta [deg.]  Phi   [deg.]  Abs(Dir.)[      ]   Abs(Theta)[      ]  Phase(Theta)[deg.]  Abs(Phi  )[      ]  Phase(Phi  )[deg.]  Ax.Ratio[      ]    
------------------------------------------------------------------------------------------------------------------------------------------------------
-180.000         -90.000            4.887e-03           3.034e-07              45.792           4.887e-03             293.637           1.370e+02     
-179.000         -90.000            7.942e-03           3.144e-03             338.606           4.798e-03             295.136           2.585e+00     
-178.000         -90.000            1.498e-02           1.039e-02             338.527           4.593e-03             299.637           3.136e+00     
-177.000         -90.000            2.123e-02           1.681e-02             338.796           4.421e-03             306.827           4.425e+00     
-176.000         -90.000            2.249e-02           1.805e-02             339.460           4.443e-03             315.741           6.080e+00     
-175.000         -90.000            1.805e-02           1.330e-02             340.944           4.746e-03             324.728           8.009e+00     
-174.000         -90.000            1.111e-02           5.819e-03             344.866           5.287e-03             332.179           9.006e+00     
-173.000         -90.000            6.591e-03           6.862e-04               6.657           5.904e-03             337.259           6.517e+00     
-172.000         -90.000            7.744e-03           1.375e-03             133.465           6.369e-03             339.884           5.706e+00     
-171.000         -90.000            1.389e-02           7.413e-03             146.988           6.476e-03             340.311           8.582e+00     
-170.000         -90.000            2.087e-02           1.475e-02             151.208           6.121e-03             338.851           1.645e+01     
-169.000         -90.000            2.388e-02           1.855e-02             154.655           5.329e-03             335.755           1.250e+02     
-168.000         -90.000            2.070e-02           1.646e-02             159.549           4.240e-03             331.220           1.705e+01     
-167.000         -90.000            1.327e-02           1.022e-02             169.215           3.049e-03             325.436           5.721e+00     
-166.000         -90.000            6.406e-03           4.466e-03             194.011           1.940e-03             318.705           2.190e+00     
-165.000         -90.000            4.625e-03           3.583e-03             247.317           1.041e-03             311.724           2.200e+00     
-164.000         -90.000            9.177e-03           8.761e-03             281.653           4.161e-04             306.660           1.128e+01     
-163.000         -90.000            1.722e-02           1.713e-02             294.747           8.345e-05             315.610           4.041e+01     
