Theta [deg.]  Phi   [deg.]  Abs(Dir.)[      ]   Abs(Theta)[      ]  Phase(Theta)[deg.]  Abs(Phi  )[      ]  Phase(Phi  )[deg.]  Ax.Ratio[      ]    
------------------------------------------------------------------------------------------------------------------------------------------------------
-180.000         -90.000            3.064e-05           1.921e-06             300.298           2.872e-05             220.295           3.935e+00     
-179.000         -90.000            3.774e-03           3.742e-03              95.088           3.207e-05             224.405           1.401e+01     
-178.000         -90.000            1.310e-02           1.305e-02              95.717           4.424e-05             233.486           2.560e+01     
-177.000         -90.000            2.253e-02           2.246e-02              96.503           7.010e-05             241.952           3.163e+01     
-176.000         -90.000            2.658e-02           2.646e-02              97.826           1.121e-04             246.971           3.005e+01     
-175.000         -90.000            2.293e-02           2.276e-02             100.295           1.659e-04             248.426           2.230e+01     
-174.000         -90.000            1.388e-02           1.366e-02             105.636           2.195e-04             246.766           1.269e+01     
-173.000         -90.000            4.986e-03           4.728e-03             121.308           2.585e-04             242.131           5.054e+00     
-172.000         -90.000            1.849e-03           1.575e-03             187.239           2.733e-04             234.145           3.579e+00     
-171.000         -90.000            6.821e-03           6.554e-03             238.912           2.673e-04             221.944           1.760e+01     
-170.000         -90.000            1.761e-02           1.735e-02             251.399           2.600e-04             204.674           1.130e+01     
-169.000         -90.000            2.854e-02           2.826e-02             256.659           2.822e-04             183.162           1.045e+01     
-168.000         -90.000            3.374e-02           3.338e-02             260.259           3.659e-04             161.203           9.674e+00     
-167.000         -90.000            3.050e-02           2.996e-02             264.182           5.311e-04             142.452           8.876e+00     
-166.000         -90.000            2.078e-02           2.001e-02             270.573           7.752e-04             127.519           8.664e+00     
-165.000         -90.000            1.023e-02           9.154e-03             285.179           1.071e-03             115.339           1.846e+01     
-164.000         -90.000            5.020e-03           3.647e-03             328.078           1.374e-03             104.763           2.928e+00     
-163.000         -90.000            8.525e-03           6.894e-03              22.321           1.632e-03              94.944           2.211e+00     
