Theta [deg.]  Phi   [deg.]  Abs(Dir.)[      ]   Abs(Theta)[      ]  Phase(Theta)[deg.]  Abs(Phi  )[      ]  Phase(Phi  )[deg.]  Ax.Ratio[      ]    
------------------------------------------------------------------------------------------------------------------------------------------------------
-180.000         -90.000            5.160e-03           1.523e-06             256.116           5.158e-03             331.216           6.021e+01     
-179.000         -90.000            1.022e-02           5.352e-03              19.602           4.863e-03             330.341           2.185e+00     
-178.000         -90.000            2.260e-02           1.847e-02              20.101           4.140e-03             327.601           2.916e+00     
-177.000         -90.000            3.487e-02           3.169e-02              20.445           3.178e-03             322.439           3.836e+00     
-176.000         -90.000            3.952e-02           3.730e-02              20.936           2.217e-03             313.738           4.491e+00     
-175.000         -90.000            3.347e-02           3.200e-02              21.859           1.467e-03             299.737           4.719e+00     
-174.000         -90.000            1.991e-02           1.886e-02              23.970           1.045e-03             279.237           4.410e+00     
-173.000         -90.000            6.606e-03           5.653e-03              30.949           9.526e-04             255.545           3.791e+00     
-172.000         -90.000            1.482e-03           3.953e-04             114.813           1.087e-03             235.552           2.170e+00     
-171.000         -90.000            8.108e-03           6.817e-03             182.080           1.291e-03             221.710           4.037e+00     
-170.000         -90.000            2.358e-02           2.217e-02             188.379           1.416e-03             212.578           1.017e+01     
-169.000         -90.000            4.003e-02           3.866e-02             190.557           1.370e-03             206.548           1.992e+01     
-168.000         -90.000            4.885e-02           4.770e-02             191.875           1.142e-03             202.793           3.491e+01     
-167.000         -90.000            4.536e-02           4.457e-02             193.260           7.964e-04             201.323           5.427e+01     
-166.000         -90.000            3.138e-02           3.094e-02             195.579           4.387e-04             203.540           6.148e+01     
-165.000         -90.000            1.417e-02           1.400e-02             201.115           1.734e-04             215.357           3.694e+01     
-164.000         -90.000            2.666e-03           2.596e-03             224.699           6.944e-05             257.313           1.156e+01     
-163.000         -90.000            2.771e-03           2.630e-03             327.127           1.408e-04             303.954           1.148e+01     
