Theta [deg.]  Phi   [deg.]  Abs(Dir.)[      ]   Abs(Theta)[      ]  Phase(Theta)[deg.]  Abs(Phi  )[      ]  Phase(Phi  )[deg.]  Ax.Ratio[      ]    
------------------------------------------------------------------------------------------------------------------------------------------------------
-180.000         -90.000            2.981e-04           1.398e-09             298.596           2.981e-04             151.551           3.162e+02     
-179.000         -90.000            3.552e-03           3.254e-03             156.035           2.986e-04             150.852           3.987e+01     
-178.000         -90.000            1.235e-02           1.205e-02             156.148           3.001e-04             148.790           5.071e+01     
-177.000         -90.000            2.408e-02           2.378e-02             156.375           3.036e-04             145.491           4.744e+01     
-176.000         -90.000            3.528e-02           3.497e-02             156.755           3.107e-04             141.162           3.979e+01     
-175.000         -90.000            4.265e-02           4.232e-02             157.359           3.225e-04             136.094           3.180e+01     
-174.000         -90.000            4.408e-02           4.374e-02             158.320           3.399e-04             130.617           2.455e+01     
-173.000         -90.000            3.925e-02           3.889e-02             159.888           3.627e-04             125.048           1.824e+01     
-172.000         -90.000            2.970e-02           2.931e-02             162.586           3.895e-04             119.646           1.283e+01     
-171.000         -90.000            1.835e-02           1.793e-02             167.710           4.183e-04             114.574           8.254e+00     
-170.000         -90.000            8.599e-03           8.154e-03             179.301           4.458e-04             109.905           4.601e+00     
-169.000         -90.000            3.329e-03           2.860e-03             212.857           4.689e-04             105.647           2.629e+00     
-168.000         -90.000            4.037e-03           3.552e-03             271.751           4.845e-04             101.760           1.765e+01     
-167.000         -90.000            1.042e-02           9.930e-03             297.850           4.900e-04              98.174           1.396e+01     
-166.000         -90.000            2.051e-02           2.003e-02             307.539           4.846e-04              94.836           1.210e+01     
-165.000         -90.000            3.128e-02           3.081e-02             312.409           4.682e-04              91.661           1.254e+01     
-164.000         -90.000            3.954e-02           3.910e-02             315.577           4.419e-04              88.573           1.293e+01     
-163.000         -90.000            4.294e-02           4.253e-02             318.243           4.080e-04              85.498           1.287e+01     
