Theta [deg.]  Phi   [deg.]  Abs(Dir.)[      ]   Abs(Theta)[      ]  Phase(Theta)[deg.]  Abs(Phi  )[      ]  Phase(Phi  )[deg.]  Ax.Ratio[      ]    
------------------------------------------------------------------------------------------------------------------------------------------------------
-180.000         -90.000            1.337e-03           3.078e-08             224.044           1.337e-03             128.173           2.095e+02     
-179.000         -90.000            4.557e-03           3.232e-03             212.176           1.325e-03             126.892           1.575e+00     
-178.000         -90.000            1.335e-02           1.205e-02             212.370           1.293e-03             123.043           3.053e+00     
-177.000         -90.000            2.544e-02           2.418e-02             212.748           1.262e-03             116.674           4.406e+00     
-176.000         -90.000            3.775e-02           3.649e-02             213.348           1.257e-03             108.032           5.600e+00     
-175.000         -90.000            4.714e-02           4.583e-02             214.253           1.308e-03              97.716           6.656e+00     
-174.000         -90.000            5.127e-02           4.984e-02             215.601           1.435e-03              86.640           7.665e+00     
-173.000         -90.000            4.922e-02           4.757e-02             217.644           1.651e-03              75.723           8.893e+00     
-172.000         -90.000            4.173e-02           3.978e-02             220.853           1.951e-03              65.545           1.125e+01     
-171.000         -90.000            3.098e-02           2.866e-02             226.225           2.317e-03              56.261           2.177e+01     
-170.000         -90.000            2.008e-02           1.736e-02             236.120           2.719e-03              47.740           2.000e+01     
-169.000         -90.000            1.227e-02           9.148e-03             256.398           3.124e-03              39.727           3.563e+00     
-168.000         -90.000            1.005e-02           6.547e-03             293.792           3.499e-03              31.946           1.412e+00     
-167.000         -90.000            1.454e-02           1.072e-02             328.750           3.822e-03              24.145           2.331e+00     
-166.000         -90.000            2.523e-02           2.115e-02             346.889           4.083e-03              16.115           5.375e+00     
-165.000         -90.000            4.001e-02           3.573e-02             356.165           4.290e-03               7.700           1.610e+01     
-164.000         -90.000            5.575e-02           5.128e-02               1.693           4.463e-03             358.816           7.340e+01     
-163.000         -90.000            6.900e-02           6.436e-02               5.604           4.637e-03             349.465           1.430e+01     
