Theta [deg.]  Phi   [deg.]  Abs(Dir.)[      ]   Abs(Theta)[      ]  Phase(Theta)[deg.]  Abs(Phi  )[      ]  Phase(Phi  )[deg.]  Ax.Ratio[      ]    
------------------------------------------------------------------------------------------------------------------------------------------------------
-180.000         -90.000            7.186e-03           3.643e-08             195.069           7.186e-03             208.483           3.162e+02     
-179.000         -90.000            1.138e-02           4.280e-03              94.836           7.095e-03             207.881           1.630e+00     
-178.000         -90.000            2.254e-02           1.570e-02              94.917           6.840e-03             206.048           1.765e+00     
-177.000         -90.000            3.689e-02           3.044e-02              95.194           6.451e-03             202.967           2.336e+00     
-176.000         -90.000            4.956e-02           4.359e-02              95.685           5.970e-03             198.618           2.794e+00     
-175.000         -90.000            5.626e-02           5.081e-02              96.486           5.445e-03             192.996           3.079e+00     
-174.000         -90.000            5.469e-02           4.977e-02              97.793           4.922e-03             186.125           3.181e+00     
-173.000         -90.000            4.535e-02           4.092e-02             100.008           4.435e-03             178.080           3.120e+00     
-172.000         -90.000            3.134e-02           2.734e-02             104.089           4.003e-03             169.000           2.972e+00     
-171.000         -90.000            1.734e-02           1.371e-02             112.885           3.629e-03             159.065           3.082e+00     
-170.000         -90.000            8.009e-03           4.707e-03             137.779           3.302e-03             148.454           1.087e+01     
-169.000         -90.000            6.497e-03           3.494e-03             199.517           3.004e-03             137.288           1.667e+00     
-168.000         -90.000            1.338e-02           1.066e-02             234.718           2.716e-03             125.562           2.171e+00     
-167.000         -90.000            2.651e-02           2.408e-02             246.521           2.428e-03             113.107           4.553e+00     
-166.000         -90.000            4.175e-02           3.960e-02             252.032           2.143e-03              99.578           9.696e+00     
-165.000         -90.000            5.433e-02           5.244e-02             255.486           1.884e-03              84.501           3.485e+01     
-164.000         -90.000            6.040e-02           5.871e-02             258.321           1.691e-03              67.454           3.212e+01     
-163.000         -90.000            5.825e-02           5.664e-02             261.345           1.612e-03              48.482           1.115e+01     
