Theta [deg.]  Phi   [deg.]  Abs(Dir.)[      ]   Abs(Theta)[      ]  Phase(Theta)[deg.]  Abs(Phi  )[      ]  Phase(Phi  )[deg.]  Ax.Ratio[      ]    
------------------------------------------------------------------------------------------------------------------------------------------------------
-180.000         -90.000            2.159e-02           3.920e-07             278.812           2.159e-02              64.687           3.162e+02     
-179.000         -90.000            2.786e-02           6.923e-03             234.283           2.094e-02              62.997           1.521e+01     
-178.000         -90.000            4.134e-02           2.203e-02             234.476           1.931e-02              58.209           3.076e+01     
-177.000         -90.000            5.063e-02           3.325e-02             235.173           1.737e-02              50.276           2.463e+01     
-176.000         -90.000            4.753e-02           3.166e-02             236.730           1.587e-02              39.533           7.030e+00     
-175.000         -90.000            3.395e-02           1.864e-02             240.544           1.531e-02              27.111           3.349e+00     
-174.000         -90.000            2.055e-02           4.799e-03             254.640           1.575e-02              14.757           2.297e+00     
-173.000         -90.000            1.837e-02           1.529e-03             354.527           1.684e-02               3.937           2.209e+01     
-172.000         -90.000            2.981e-02           1.187e-02              31.749           1.794e-02             355.252           3.113e+00     
-171.000         -90.000            4.646e-02           2.800e-02              38.563           1.845e-02             348.642           2.221e+00     
-170.000         -90.000            5.539e-02           3.737e-02              41.734           1.801e-02             343.825           2.026e+00     
-169.000         -90.000            4.915e-02           3.256e-02              44.707           1.659e-02             340.523           1.791e+00     
-168.000         -90.000            3.171e-02           1.727e-02              50.269           1.444e-02             338.523           1.400e+00     
-167.000         -90.000            1.563e-02           3.671e-03              72.168           1.196e-02             337.632           1.816e+00     
-166.000         -90.000            1.274e-02           3.212e-03             173.613           9.526e-03             337.573           8.213e+00     
-165.000         -90.000            2.519e-02           1.781e-02             198.762           7.385e-03             337.857           3.024e+00     
-164.000         -90.000            4.376e-02           3.813e-02             204.640           5.626e-03             337.669           3.825e+00     
-163.000         -90.000            5.448e-02           5.025e-02             207.563           4.231e-03             335.810           4.537e+00     
