Theta [deg.]  Phi   [deg.]  Abs(Dir.)[      ]   Abs(Theta)[      ]  Phase(Theta)[deg.]  Abs(Phi  )[      ]  Phase(Phi  )[deg.]  Ax.Ratio[      ]    
------------------------------------------------------------------------------------------------------------------------------------------------------
-180.000         -90.000            2.944e-04           2.025e-09             221.044           2.944e-04              61.328           3.162e+02     
-179.000         -90.000            3.584e-03           3.287e-03              92.811           2.962e-04              60.563           6.656e+00     
-178.000         -90.000            1.244e-02           1.213e-02              92.910           3.019e-04              58.322           1.136e+01     
-177.000         -90.000            2.411e-02           2.380e-02              93.124           3.124e-04              54.799           1.419e+01     
-176.000         -90.000            3.500e-02           3.467e-02              93.487           3.290e-04              50.292           1.507e+01     
-175.000         -90.000            4.178e-02           4.142e-02              94.077           3.525e-04              45.165           1.444e+01     
-174.000         -90.000            4.241e-02           4.202e-02              95.035           3.830e-04              39.781           1.279e+01     
-173.000         -90.000            3.680e-02           3.638e-02              96.633           4.192e-04              34.429           1.056e+01     
-172.000         -90.000            2.678e-02           2.632e-02              99.473           4.583e-04              29.305           8.072e+00     
-171.000         -90.000            1.553e-02           1.503e-02             105.141           4.968e-04              24.494           5.580e+00     
-170.000         -90.000            6.560e-03           6.030e-03             119.185           5.301e-04              20.006           3.425e+00     
-169.000         -90.000            2.637e-03           2.083e-03             164.212           5.540e-04              15.795           4.463e+00     
-168.000         -90.000            4.919e-03           4.354e-03             221.172           5.651e-04              11.791           6.232e+00     
-167.000         -90.000            1.264e-02           1.208e-02             240.317           5.614e-04               7.906           5.957e+00     
-166.000         -90.000            2.336e-02           2.282e-02             247.689           5.427e-04               4.049           7.271e+00     
-165.000         -90.000            3.377e-02           3.326e-02             251.621           5.107e-04               0.120           8.523e+00     
-164.000         -90.000            4.071e-02           4.024e-02             254.373           4.685e-04             356.024           9.467e+00     
-163.000         -90.000            4.210e-02           4.168e-02             256.907           4.202e-04             351.663           9.994e+00     
