Theta [deg.]  Phi   [deg.]  Abs(Dir.)[      ]   Abs(Theta)[      ]  Phase(Theta)[deg.]  Abs(Phi  )[      ]  Phase(Phi  )[deg.]  Ax.Ratio[      ]    
------------------------------------------------------------------------------------------------------------------------------------------------------
-180.000         -90.000            2.570e-03           2.306e-07             355.984           2.570e-03             322.642           1.921e+02     
-179.000         -90.000            4.717e-03           2.139e-03             329.021           2.578e-03             321.869           1.607e+01     
-178.000         -90.000            9.777e-03           7.173e-03             329.071           2.604e-03             319.602           1.368e+01     
-177.000         -90.000            1.467e-02           1.202e-02             329.410           2.645e-03             315.922           1.106e+01     
-176.000         -90.000            1.642e-02           1.373e-02             330.127           2.699e-03             310.949           8.091e+00     
-175.000         -90.000            1.403e-02           1.127e-02             331.588           2.759e-03             304.824           5.402e+00     
-174.000         -90.000            9.000e-03           6.185e-03             334.974           2.815e-03             297.682           3.253e+00     
-173.000         -90.000            4.459e-03           1.602e-03             346.678           2.857e-03             289.641           1.979e+00     
-172.000         -90.000            3.191e-03           3.191e-04              84.986           2.872e-03             280.781           1.216e+01     
-171.000         -90.000            5.959e-03           3.111e-03             129.130           2.849e-03             271.133           2.908e+00     
-170.000         -90.000            1.107e-02           8.285e-03             136.484           2.781e-03             260.675           2.364e+00     
-169.000         -90.000            1.542e-02           1.275e-02             140.217           2.668e-03             249.332           2.377e+00     
-168.000         -90.000            1.643e-02           1.391e-02             143.829           2.522e-03             237.009           2.354e+00     
-167.000         -90.000            1.359e-02           1.122e-02             149.247           2.361e-03             223.635           2.306e+00     
-166.000         -90.000            8.717e-03           6.508e-03             160.151           2.209e-03             209.242           2.667e+00     
-165.000         -90.000            4.919e-03           2.837e-03             187.987           2.082e-03             194.033           1.917e+01     
-164.000         -90.000            4.694e-03           2.712e-03             240.711           1.983e-03             178.364           1.696e+00     
-163.000         -90.000            8.481e-03           6.583e-03             271.497           1.898e-03             162.613           2.047e+00     
