Theta [deg.]  Phi   [deg.]  Abs(Dir.)[      ]   Abs(Theta)[      ]  Phase(Theta)[deg.]  Abs(Phi  )[      ]  Phase(Phi  )[deg.]  Ax.Ratio[      ]    
------------------------------------------------------------------------------------------------------------------------------------------------------
-180.000         -90.000            6.925e-03           2.188e-06             328.294           6.923e-03             104.648           8.151e+01     
-179.000         -90.000            1.813e-02           1.074e-02             197.593           7.391e-03              98.746           1.275e+00     
-178.000         -90.000            4.118e-02           3.191e-02             196.914           9.269e-03              84.474           2.118e+00     
-177.000         -90.000            5.520e-02           4.113e-02             196.102           1.407e-02              68.954           2.475e+00     
-176.000         -90.000            5.134e-02           2.870e-02             194.702           2.264e-02              57.040           2.607e+00     
-175.000         -90.000            4.181e-02           7.761e-03             190.881           3.405e-02              48.901           3.921e+00     
-174.000         -90.000            4.587e-02           4.528e-04              42.731           4.542e-02              43.249           3.162e+02     
-173.000         -90.000            6.786e-02           1.470e-02              19.647           5.317e-02              39.028           7.177e+00     
-172.000         -90.000            9.071e-02           3.609e-02              16.813           5.462e-02              35.535           6.204e+00     
-171.000         -90.000            9.229e-02           4.297e-02              15.072           4.932e-02              32.257           6.635e+00     
-170.000         -90.000            6.771e-02           2.859e-02              13.485           3.912e-02              28.669           7.599e+00     
-169.000         -90.000            3.471e-02           7.519e-03              11.392           2.719e-02              24.003           1.103e+01     
-168.000         -90.000            1.691e-02           2.844e-04             200.874           1.662e-02              16.858           1.110e+02     
-167.000         -90.000            2.202e-02           1.269e-02             192.425           9.332e-03               4.665           1.492e+01     
-166.000         -90.000            3.658e-02           3.084e-02             191.480           5.742e-03             344.693           5.931e+00     
-165.000         -90.000            4.127e-02           3.606e-02             191.906           5.204e-03             321.201           3.616e+00     
-164.000         -90.000            3.034e-02           2.368e-02             195.232           6.662e-03             304.638           2.081e+00     
-163.000         -90.000            1.603e-02           6.908e-03             210.819           9.127e-03             296.491           1.172e+00     
