Theta [deg.]  Phi   [deg.]  Abs(Dir.)[      ]   Abs(Theta)[      ]  Phase(Theta)[deg.]  Abs(Phi  )[      ]  Phase(Phi  )[deg.]  Ax.Ratio[      ]    
------------------------------------------------------------------------------------------------------------------------------------------------------
-180.000         -90.000            9.077e-03           1.648e-07             211.678           9.076e-03              35.674           3.162e+02     
-179.000         -90.000            1.365e-02           4.947e-03             221.037           8.702e-03              34.595           1.849e+01     
-178.000         -90.000            2.519e-02           1.750e-02             221.323           7.694e-03              31.487           1.263e+01     
-177.000         -90.000            3.841e-02           3.211e-02             221.822           6.293e-03              25.849           9.714e+00     
-176.000         -90.000            4.720e-02           4.237e-02             222.665           4.828e-03              16.747           7.416e+00     
-175.000         -90.000            4.746e-02           4.382e-02             224.087           3.635e-03               2.911           5.530e+00     
-174.000         -90.000            3.895e-02           3.596e-02             226.613           2.985e-03             343.856           3.977e+00     
-173.000         -90.000            2.545e-02           2.244e-02             231.629           3.014e-03             322.308           2.729e+00     
-172.000         -90.000            1.312e-02           9.423e-03             244.060           3.701e-03             303.211           2.116e+00     
-171.000         -90.000            7.731e-03           2.855e-03             287.197           4.876e-03             288.746           7.664e+01     
-170.000         -90.000            1.209e-02           5.830e-03             350.328           6.259e-03             278.154           1.375e+00     
-169.000         -90.000            2.476e-02           1.723e-02              10.229           7.532e-03             270.110           1.572e+00     
-168.000         -90.000            4.060e-02           3.220e-02              17.472           8.403e-03             263.631           2.255e+00     
-167.000         -90.000            5.297e-02           4.430e-02              21.255           8.670e-03             258.082           2.882e+00     
-166.000         -90.000            5.651e-02           4.825e-02              23.945           8.260e-03             253.051           3.455e+00     
-165.000         -90.000            4.951e-02           4.227e-02              26.641           7.235e-03             248.233           4.016e+00     
-164.000         -90.000            3.462e-02           2.885e-02              30.518           5.772e-03             243.345           4.738e+00     
-163.000         -90.000            1.785e-02           1.373e-02              38.523           4.119e-03             238.016           6.969e+00     
