Theta [deg.]  Phi   [deg.]  Abs(Dir.)[      ]   Abs(Theta)[      ]  Phase(Theta)[deg.]  Abs(Phi  )[      ]  Phase(Phi  )[deg.]  Ax.Ratio[      ]    
------------------------------------------------------------------------------------------------------------------------------------------------------
-180.000         -90.000            2.032e-02           3.073e-07             271.802           2.032e-02              47.242           3.162e+02     
-179.000         -90.000            2.900e-02           8.976e-03             329.503           2.003e-02              44.929           1.616e+00     
-178.000         -90.000            4.740e-02           2.802e-02             329.968           1.938e-02              38.561           1.532e+00     
-177.000         -90.000            5.983e-02           4.068e-02             330.715           1.915e-02              28.712           2.037e+00     
-176.000         -90.000            5.627e-02           3.613e-02             332.223           2.014e-02              16.846           2.583e+00     
-175.000         -90.000            4.114e-02           1.850e-02             335.981           2.264e-02               5.027           3.883e+00     
-174.000         -90.000            2.932e-02           3.044e-03             353.247           2.627e-02             354.816           1.197e+02     
-173.000         -90.000            3.275e-02           2.744e-03             117.407           3.001e-02             346.711           4.540e+00     
-172.000         -90.000            4.979e-02           1.720e-02             136.349           3.259e-02             340.507           4.936e+00     
-171.000         -90.000            6.638e-02           3.336e-02             141.361           3.303e-02             335.795           7.897e+00     
-170.000         -90.000            6.813e-02           3.716e-02             145.280           3.097e-02             332.185           1.664e+01     
-169.000         -90.000            5.255e-02           2.576e-02             151.417           2.679e-02             329.343           5.527e+01     
-168.000         -90.000            3.108e-02           9.701e-03             167.785           2.138e-02             326.951           5.898e+00     
-167.000         -90.000            1.924e-02           3.450e-03             232.268           1.579e-02             324.596           2.142e+00     
-166.000         -90.000            2.367e-02           1.280e-02             283.370           1.087e-02             321.627           2.895e+00     
-165.000         -90.000            3.706e-02           2.996e-02             296.514           7.101e-03             316.933           7.143e+00     
-164.000         -90.000            4.498e-02           4.039e-02             302.662           4.588e-03             308.798           3.088e+01     
-163.000         -90.000            3.848e-02           3.524e-02             308.230           3.238e-03             295.579           1.639e+01     
