Theta [deg.]  Phi   [deg.]  Abs(Dir.)[      ]   Abs(Theta)[      ]  Phase(Theta)[deg.]  Abs(Phi  )[      ]  Phase(Phi  )[deg.]  Ax.Ratio[      ]    
------------------------------------------------------------------------------------------------------------------------------------------------------
-180.000         -90.000            1.156e-02           4.099e-07             309.316           1.156e-02             164.400           2.922e+02     
-179.000         -90.000            1.789e-02           6.933e-03             114.718           1.096e-02             163.817           2.276e+00     
-178.000         -90.000            3.338e-02           2.400e-02             114.794           9.383e-03             162.171           2.645e+00     
-177.000         -90.000            4.874e-02           4.154e-02             114.870           7.200e-03             159.084           3.777e+00     
-176.000         -90.000            5.459e-02           4.969e-02             115.021           4.903e-03             153.716           5.410e+00     
-175.000         -90.000            4.687e-02           4.392e-02             115.359           2.954e-03             144.293           8.387e+00     
-174.000         -90.000            2.920e-02           2.754e-02             116.179           1.663e-03             127.501           2.193e+01     
-173.000         -90.000            1.087e-02           9.754e-03             118.709           1.120e-03             101.013           1.073e+01     
-172.000         -90.000            1.602e-03           4.048e-04             144.585           1.197e-03              73.592           1.911e+00     
-171.000         -90.000            6.079e-03           4.457e-03             283.461           1.622e-03              55.972           2.697e+00     
-170.000         -90.000            2.144e-02           1.935e-02             288.559           2.084e-03              47.078           3.561e+00     
-169.000         -90.000            3.896e-02           3.661e-02             290.380           2.348e-03              43.649           4.344e+00     
-168.000         -90.000            4.900e-02           4.669e-02             291.938           2.312e-03              44.170           4.891e+00     
-167.000         -90.000            4.630e-02           4.427e-02             294.155           2.025e-03              48.489           5.173e+00     
-166.000         -90.000            3.273e-02           3.109e-02             298.288           1.644e-03              57.323           5.038e+00     
-165.000         -90.000            1.607e-02           1.472e-02             308.025           1.351e-03              71.377           4.068e+00     
-164.000         -90.000            5.546e-03           4.263e-03             340.752           1.283e-03              89.067           1.997e+00     
-163.000         -90.000            6.770e-03           5.294e-03              50.678           1.476e-03             105.612           2.570e+00     
