Theta [deg.]  Phi   [deg.]  Abs(Dir.)[      ]   Abs(Theta)[      ]  Phase(Theta)[deg.]  Abs(Phi  )[      ]  Phase(Phi  )[deg.]  Ax.Ratio[      ]    
------------------------------------------------------------------------------------------------------------------------------------------------------
-180.000         -90.000            1.344e-02           7.211e-06              86.159           1.343e-02              86.915           3.162e+02     
-179.000         -90.000            1.995e-02           6.163e-03             259.858           1.379e-02              83.676           3.247e+01     
-178.000         -90.000            3.438e-02           1.914e-02             260.093           1.524e-02              76.320           3.056e+01     
-177.000         -90.000            4.409e-02           2.584e-02             260.456           1.825e-02              66.938           8.569e+00     
-176.000         -90.000            4.250e-02           1.951e-02             261.374           2.299e-02              57.664           4.781e+00     
-175.000         -90.000            3.547e-02           6.523e-03             264.760           2.895e-02              49.618           4.249e+00     
-174.000         -90.000            3.506e-02           1.264e-04             356.238           3.493e-02              42.938           2.288e+01     
-173.000         -90.000            4.669e-02           7.311e-03              69.249           3.938e-02              37.324           5.004e+00     
-172.000         -90.000            6.272e-02           2.173e-02              72.405           4.098e-02              32.385           2.926e+00     
-171.000         -90.000            6.891e-02           2.972e-02              73.378           3.919e-02              27.756           2.410e+00     
-170.000         -90.000            5.793e-02           2.354e-02              74.188           3.440e-02              23.074           2.151e+00     
-169.000         -90.000            3.675e-02           9.015e-03              76.406           2.773e-02              17.921           2.289e+00     
-168.000         -90.000            2.086e-02           2.006e-04             112.595           2.066e-02              11.719           1.034e+01     
-167.000         -90.000            2.065e-02           6.192e-03             243.728           1.446e-02               3.643           2.024e+00     
-166.000         -90.000            3.248e-02           2.258e-02             247.408           9.897e-03             352.660           1.643e+00     
-165.000         -90.000            4.265e-02           3.545e-02             249.281           7.200e-03             338.229           2.220e+00     
-164.000         -90.000            4.017e-02           3.401e-02             252.069           6.156e-03             321.819           2.570e+00     
-163.000         -90.000            2.641e-02           2.008e-02             258.586           6.330e-03             306.808           2.782e+00     
