Theta [deg.]  Phi   [deg.]  Abs(Dir.)[      ]   Abs(Theta)[      ]  Phase(Theta)[deg.]  Abs(Phi  )[      ]  Phase(Phi  )[deg.]  Ax.Ratio[      ]    
------------------------------------------------------------------------------------------------------------------------------------------------------
-180.000         -90.000            7.178e-03           1.504e-06              79.980           7.177e-03             156.590           7.102e+01     
-179.000         -90.000            1.238e-02           5.547e-03             249.193           6.829e-03             155.717           1.128e+00     
-178.000         -90.000            2.501e-02           1.903e-02             249.485           5.982e-03             152.994           1.806e+00     
-177.000         -90.000            3.684e-02           3.200e-02             249.934           4.840e-03             148.060           2.647e+00     
-176.000         -90.000            4.001e-02           3.635e-02             250.766           3.661e-03             140.298           3.409e+00     
-175.000         -90.000            3.203e-02           2.935e-02             252.456           2.675e-03             128.945           4.090e+00     
-174.000         -90.000            1.748e-02           1.546e-02             256.553           2.017e-03             113.716           4.981e+00     
-173.000         -90.000            5.266e-03           3.565e-03             272.354           1.701e-03              96.059           3.306e+01     
-172.000         -90.000            3.189e-03           1.551e-03              15.688           1.638e-03              79.199           1.617e+00     
-171.000         -90.000            1.309e-02           1.141e-02              47.641           1.687e-03              65.653           9.549e+00     
-170.000         -90.000            2.961e-02           2.791e-02              53.704           1.707e-03              55.916           1.112e+02     
-169.000         -90.000            4.326e-02           4.165e-02              56.149           1.610e-03              49.554           4.597e+01     
-168.000         -90.000            4.602e-02           4.464e-02              57.708           1.383e-03              46.273           2.951e+01     
-167.000         -90.000            3.610e-02           3.503e-02              59.438           1.071e-03              46.367           2.602e+01     
-166.000         -90.000            1.908e-02           1.832e-02              62.800           7.602e-04              50.973           2.491e+01     
-165.000         -90.000            4.757e-03           4.226e-03              74.976           5.310e-04              61.873           1.394e+01     
-164.000         -90.000            1.592e-03           1.157e-03             185.087           4.354e-04              78.944           1.771e+00     
-163.000         -90.000            1.195e-02           1.147e-02             219.242           4.789e-04              96.187           5.914e+00     
