Theta [deg.]  Phi   [deg.]  Abs(Dir.)[      ]   Abs(Theta)[      ]  Phase(Theta)[deg.]  Abs(Phi  )[      ]  Phase(Phi  )[deg.]  Ax.Ratio[      ]    
------------------------------------------------------------------------------------------------------------------------------------------------------
-180.000         -90.000            2.465e-02           1.484e-06             228.866           2.464e-02             277.450           1.719e+02     
-179.000         -90.000            2.825e-02           4.069e-03              90.888           2.418e-02             276.735           2.792e+01     
-178.000         -90.000            3.802e-02           1.503e-02              90.679           2.299e-02             274.726           2.895e+01     
-177.000         -90.000            5.019e-02           2.896e-02              90.847           2.123e-02             271.347           2.322e+02     
-176.000         -90.000            6.000e-02           4.085e-02              91.270           1.916e-02             266.490           2.571e+01     
-175.000         -90.000            6.349e-02           4.645e-02              92.020           1.704e-02             260.045           1.078e+01     
-174.000         -90.000            5.893e-02           4.380e-02              93.303           1.513e-02             251.956           6.126e+00     
-173.000         -90.000            4.755e-02           3.391e-02              95.588           1.363e-02             242.322           3.766e+00     
-172.000         -90.000            3.312e-02           2.043e-02             100.127           1.269e-02             231.493           2.307e+00     
-171.000         -90.000            2.067e-02           8.342e-03             111.430           1.233e-02             220.071           1.471e+00     
-170.000         -90.000            1.470e-02           2.225e-03             153.313           1.247e-02             208.746           3.062e+00     
-169.000         -90.000            1.760e-02           4.613e-03             221.683           1.299e-02             198.070           5.495e+00     
-168.000         -90.000            2.878e-02           1.510e-02             241.741           1.368e-02             188.322           1.991e+00     
-167.000         -90.000            4.479e-02           3.045e-02             248.679           1.433e-02             179.535           1.709e+00     
-166.000         -90.000            6.046e-02           4.572e-02             252.174           1.474e-02             171.600           1.808e+00     
-165.000         -90.000            7.064e-02           5.589e-02             254.498           1.475e-02             164.342           1.947e+00     
-164.000         -90.000            7.185e-02           5.760e-02             256.543           1.426e-02             157.579           2.051e+00     
-163.000         -90.000            6.353e-02           5.027e-02             258.936           1.325e-02             151.127           2.111e+00     
