Theta [deg.]  Phi   [deg.]  Abs(Dir.)[      ]   Abs(Theta)[      ]  Phase(Theta)[deg.]  Abs(Phi  )[      ]  Phase(Phi  )[deg.]  Ax.Ratio[      ]    
------------------------------------------------------------------------------------------------------------------------------------------------------
-180.000         -90.000            5.532e-03           2.382e-07             221.581           5.532e-03              19.194           3.162e+02     
-179.000         -90.000            1.116e-02           5.811e-03             209.878           5.352e-03              18.160           9.754e+00     
-178.000         -90.000            2.451e-02           1.966e-02             210.099           4.855e-03              15.169           9.635e+00     
-177.000         -90.000            3.748e-02           3.332e-02             210.606           4.158e-03               9.987           8.930e+00     
-176.000         -90.000            4.217e-02           3.876e-02             211.563           3.413e-03               2.267           7.357e+00     
-175.000         -90.000            3.563e-02           3.287e-02             213.404           2.764e-03             351.741           5.440e+00     
-174.000         -90.000            2.161e-02           1.930e-02             217.428           2.305e-03             338.623           3.501e+00     
-173.000         -90.000            8.249e-03           6.189e-03             229.552           2.059e-03             324.060           1.744e+00     
-172.000         -90.000            3.188e-03           1.206e-03             299.778           1.982e-03             309.887           1.166e+01     
-171.000         -90.000            8.993e-03           7.012e-03               0.221           1.981e-03             297.565           2.277e+00     
-170.000         -90.000            2.170e-02           1.974e-02              11.314           1.955e-03             287.610           3.201e+00     
-169.000         -90.000            3.327e-02           3.144e-02              15.911           1.828e-03             279.891           4.173e+00     
-168.000         -90.000            3.649e-02           3.492e-02              19.339           1.572e-03             274.144           4.900e+00     
-167.000         -90.000            2.933e-02           2.811e-02              23.643           1.213e-03             270.278           5.281e+00     
-166.000         -90.000            1.619e-02           1.537e-02              32.015           8.172e-04             268.593           5.283e+00     
-165.000         -90.000            5.367e-03           4.904e-03              57.535           4.630e-04             270.244           6.436e+00     
-164.000         -90.000            4.187e-03           3.975e-03             128.643           2.119e-04             278.675           9.022e+00     
-163.000         -90.000            1.467e-02           1.458e-02             161.761           8.820e-05             302.768           2.051e+01     
