Theta [deg.]  Phi   [deg.]  Abs(Dir.)[      ]   Abs(Theta)[      ]  Phase(Theta)[deg.]  Abs(Phi  )[      ]  Phase(Phi  )[deg.]  Ax.Ratio[      ]    
------------------------------------------------------------------------------------------------------------------------------------------------------
-180.000         -90.000            4.911e-02           1.108e-07             174.942           4.911e-02             309.504           3.162e+02     
-179.000         -90.000            5.228e-02           3.847e-03             171.483           4.843e-02             309.041           5.493e+00     
-178.000         -90.000            6.047e-02           1.406e-02             171.688           4.641e-02             307.651           3.081e+00     
-177.000         -90.000            7.059e-02           2.731e-02             172.079           4.327e-02             305.289           2.400e+00     
-176.000         -90.000            7.866e-02           3.931e-02             172.710           3.934e-02             301.885           2.105e+00     
-175.000         -90.000            8.120e-02           4.620e-02             173.690           3.500e-02             297.346           1.899e+00     
-174.000         -90.000            7.648e-02           4.583e-02             175.222           3.065e-02             291.572           1.683e+00     
-173.000         -90.000            6.509e-02           3.843e-02             177.713           2.666e-02             284.492           1.419e+00     
-172.000         -90.000            4.985e-02           2.656e-02             182.094           2.329e-02             276.118           1.101e+00     
-171.000         -90.000            3.493e-02           1.423e-02             190.946           2.070e-02             266.608           1.372e+00     
-170.000         -90.000            2.452e-02           5.586e-03             213.313           1.894e-02             256.309           3.182e+00     
-169.000         -90.000            2.147e-02           3.567e-03             266.753           1.791e-02             245.712           7.347e+00     
-168.000         -90.000            2.638e-02           8.945e-03             305.832           1.744e-02             235.321           1.626e+00     
-167.000         -90.000            3.738e-02           2.009e-02             320.378           1.729e-02             225.512           1.120e+00     
-166.000         -90.000            5.074e-02           3.350e-02             327.244           1.723e-02             216.466           1.654e+00     
-165.000         -90.000            6.199e-02           4.497e-02             331.517           1.702e-02             208.196           2.234e+00     
-164.000         -90.000            6.736e-02           5.088e-02             334.940           1.648e-02             200.603           2.908e+00     
-163.000         -90.000            6.495e-02           4.942e-02             338.447           1.553e-02             193.539           3.816e+00     
