Theta [deg.]  Phi   [deg.]  Abs(Dir.)[      ]   Abs(Theta)[      ]  Phase(Theta)[deg.]  Abs(Phi  )[      ]  Phase(Phi  )[deg.]  Ax.Ratio[      ]    
------------------------------------------------------------------------------------------------------------------------------------------------------
-180.000         -90.000            1.112e-02           3.264e-07             339.457           1.112e-02              84.392           1.911e+02     
-179.000         -90.000            1.682e-02           5.725e-03             108.503           1.110e-02              83.009           4.690e+00     
-178.000         -90.000            2.966e-02           1.868e-02             108.800           1.098e-02              78.974           3.908e+00     
-177.000         -90.000            4.004e-02           2.910e-02             109.141           1.094e-02              72.605           3.482e+00     
-176.000         -90.000            4.030e-02           2.914e-02             109.786           1.116e-02              64.542           2.788e+00     
-175.000         -90.000            3.053e-02           1.877e-02             111.282           1.176e-02              55.706           1.988e+00     
-174.000         -90.000            1.855e-02           5.849e-03             116.251           1.270e-02              47.027           1.721e+00     
-173.000         -90.000            1.400e-02           2.071e-04             201.368           1.379e-02              39.131           2.712e+01     
-172.000         -90.000            2.110e-02           6.384e-03             275.562           1.472e-02              32.246           1.914e+00     
-171.000         -90.000            3.537e-02           2.024e-02             280.621           1.513e-02              26.311           1.369e+00     
-170.000         -90.000            4.681e-02           3.202e-02             282.827           1.479e-02              21.125           1.513e+00     
-169.000         -90.000            4.708e-02           3.345e-02             284.997           1.363e-02              16.442           1.568e+00     
-168.000         -90.000            3.548e-02           2.371e-02             288.698           1.177e-02              12.012           1.448e+00     
-167.000         -90.000            1.940e-02           9.914e-03             298.161           9.486e-03               7.574           1.445e+00     
-166.000         -90.000            9.028e-03           1.902e-03             342.285           7.126e-03               2.841           6.837e+00     
-165.000         -90.000            1.023e-02           5.235e-03              62.025           4.993e-03             357.460           1.584e+00     
-164.000         -90.000            2.068e-02           1.739e-02              79.372           3.289e-03             350.969           2.301e+00     
-163.000         -90.000            3.187e-02           2.979e-02              85.984           2.078e-03             342.818           3.904e+00     
