Theta [deg.]  Phi   [deg.]  Abs(Dir.)[      ]   Abs(Theta)[      ]  Phase(Theta)[deg.]  Abs(Phi  )[      ]  Phase(Phi  )[deg.]  Ax.Ratio[      ]    
------------------------------------------------------------------------------------------------------------------------------------------------------
-180.000         -90.000            3.816e-03           2.045e-07             115.921           3.816e-03             274.534           3.162e+02     
-179.000         -90.000            8.570e-03           4.900e-03              45.741           3.670e-03             273.369           2.301e+00     
-178.000         -90.000            2.013e-02           1.685e-02              45.798           3.276e-03             269.884           3.617e+00     
-177.000         -90.000            3.200e-02           2.926e-02              46.204           2.742e-03             263.709           5.693e+00     
-176.000         -90.000            3.749e-02           3.529e-02              47.040           2.205e-03             254.328           9.162e+00     
-175.000         -90.000            3.344e-02           3.165e-02              48.662           1.786e-03             241.457           2.003e+01     
-174.000         -90.000            2.200e-02           2.044e-02              52.111           1.554e-03             225.855           3.579e+01     
-173.000         -90.000            9.512e-03           8.007e-03              61.531           1.505e-03             209.724           4.999e+00     
-172.000         -90.000            3.024e-03           1.451e-03             108.202           1.573e-03             195.407           1.065e+00     
-171.000         -90.000            6.397e-03           4.737e-03             187.125           1.660e-03             183.885           4.034e+01     
-170.000         -90.000            1.815e-02           1.648e-02             202.659           1.668e-03             174.952           7.308e+00     
-169.000         -90.000            3.219e-02           3.065e-02             207.720           1.539e-03             168.060           7.205e+00     
-168.000         -90.000            4.103e-02           3.976e-02             210.393           1.267e-03             162.789           7.698e+00     
-167.000         -90.000            3.981e-02           3.891e-02             212.577           8.985e-04             159.029           8.249e+00     
-166.000         -90.000            2.895e-02           2.843e-02             215.466           5.157e-04             157.285           8.783e+00     
-165.000         -90.000            1.405e-02           1.384e-02             221.481           2.069e-04             160.083           9.349e+00     
-164.000         -90.000            3.126e-03           3.086e-03             244.047           4.064e-05             184.227           1.011e+01     
-163.000         -90.000            2.521e-03           2.475e-03             338.975           4.634e-05             269.949           7.846e+00     
