Theta [deg.]  Phi   [deg.]  Abs(Dir.)[      ]   Abs(Theta)[      ]  Phase(Theta)[deg.]  Abs(Phi  )[      ]  Phase(Phi  )[deg.]  Ax.Ratio[      ]    
------------------------------------------------------------------------------------------------------------------------------------------------------
-180.000         -90.000            1.858e-01           3.702e-07              86.907           1.858e-01             261.445           3.162e+02     
-179.000         -90.000            1.859e-01           2.999e-03             262.070           1.829e-01             261.252           3.162e+02     
-178.000         -90.000            1.858e-01           1.144e-02             262.105           1.743e-01             260.681           1.675e+02     
-177.000         -90.000            1.842e-01           2.338e-02             262.129           1.609e-01             259.704           7.100e+01     
-176.000         -90.000            1.796e-01           3.609e-02             262.164           1.435e-01             258.270           3.673e+01     
-175.000         -90.000            1.703e-01           4.666e-02             262.222           1.236e-01             256.297           2.167e+01     
-174.000         -90.000            1.553e-01           5.267e-02             262.322           1.026e-01             253.656           1.395e+01     
-173.000         -90.000            1.347e-01           5.275e-02             262.494           8.194e-02             250.158           9.484e+00     
-172.000         -90.000            1.098e-01           4.688e-02             262.788           6.287e-02             245.514           6.658e+00     
-171.000         -90.000            8.283e-02           3.641e-02             263.304           4.642e-02             239.288           4.739e+00     
-170.000         -90.000            5.699e-02           2.373e-02             264.264           3.326e-02             230.864           3.390e+00     
-169.000         -90.000            3.546e-02           1.175e-02             266.325           2.371e-02             219.492           2.515e+00     
-168.000         -90.000            2.095e-02           3.224e-03             272.653           1.773e-02             204.711           2.607e+00     
-167.000         -90.000            1.513e-02           1.655e-04             351.778           1.496e-02             187.327           3.583e+01     
-166.000         -90.000            1.819e-02           3.370e-03              67.013           1.482e-02             169.866           2.182e+00     
-165.000         -90.000            2.883e-02           1.226e-02              73.378           1.657e-02             154.861           1.237e+00     
-164.000         -90.000            4.444e-02           2.501e-02              75.750           1.943e-02             143.131           1.531e+00     
-163.000         -90.000            6.162e-02           3.898e-02              77.220           2.264e-02             134.220           1.964e+00     
