Theta [deg.]  Phi   [deg.]  Abs(Dir.)[      ]   Abs(Theta)[      ]  Phase(Theta)[deg.]  Abs(Phi  )[      ]  Phase(Phi  )[deg.]  Ax.Ratio[      ]    
------------------------------------------------------------------------------------------------------------------------------------------------------
-180.000         -90.000            2.769e-03           1.640e-07              11.851           2.769e-03             146.213           1.817e+02     
-179.000         -90.000            7.148e-03           4.462e-03             237.986           2.686e-03             144.574           1.298e+00     
-178.000         -90.000            1.815e-02           1.568e-02             237.942           2.470e-03             139.604           2.556e+00     
-177.000         -90.000            3.023e-02           2.802e-02             238.072           2.215e-03             131.044           3.747e+00     
-176.000         -90.000            3.731e-02           3.527e-02             238.386           2.038e-03             118.989           4.844e+00     
-175.000         -90.000            3.580e-02           3.376e-02             239.022           2.038e-03             104.631           5.869e+00     
-174.000         -90.000            2.648e-02           2.422e-02             240.364           2.257e-03              90.236           7.047e+00     
-173.000         -90.000            1.413e-02           1.147e-02             243.738           2.667e-03              77.723           1.048e+01     
-172.000         -90.000            5.262e-03           2.094e-03             258.352           3.168e-03              67.675           1.094e+01     
-171.000         -90.000            4.851e-03           1.226e-03              20.094           3.625e-03              59.756           3.303e+00     
-170.000         -90.000            1.390e-02           1.000e-02              42.536           3.902e-03              53.388           1.174e+01     
-169.000         -90.000            2.884e-02           2.494e-02              46.943           3.901e-03              48.054           1.509e+02     
-168.000         -90.000            4.313e-02           3.954e-02              48.978           3.591e-03              43.356           3.692e+01     
-167.000         -90.000            5.030e-02           4.729e-02              50.540           3.012e-03              38.982           2.099e+01     
-166.000         -90.000            4.698e-02           4.472e-02              52.404           2.265e-03              34.648           1.524e+01     
-165.000         -90.000            3.454e-02           3.306e-02              55.444           1.480e-03              30.005           1.141e+01     
-164.000         -90.000            1.844e-02           1.765e-02              61.806           7.891e-04              24.382           8.006e+00     
-163.000         -90.000            5.880e-03           5.587e-03              80.705           2.931e-04              15.651           4.862e+00     
