Theta [deg.]  Phi   [deg.]  Abs(Dir.)[      ]   Abs(Theta)[      ]  Phase(Theta)[deg.]  Abs(Phi  )[      ]  Phase(Phi  )[deg.]  Ax.Ratio[      ]    
------------------------------------------------------------------------------------------------------------------------------------------------------
-180.000         -90.000            1.593e-01           3.058e-07             356.429           1.593e-01             163.473           3.162e+02     
-179.000         -90.000            1.596e-01           2.908e-03             195.058           1.567e-01             163.231           1.411e+01     
-178.000         -90.000            1.604e-01           1.103e-02             194.978           1.494e-01             162.514           7.223e+00     
-177.000         -90.000            1.602e-01           2.240e-02             194.972           1.378e-01             161.289           4.999e+00     
-176.000         -90.000            1.572e-01           3.422e-02             195.006           1.230e-01             159.492           3.916e+00     
-175.000         -90.000            1.498e-01           4.363e-02             195.085           1.061e-01             157.029           3.264e+00     
-174.000         -90.000            1.368e-01           4.831e-02             195.235           8.848e-02             153.755           2.802e+00     
-173.000         -90.000            1.184e-01           4.711e-02             195.501           7.130e-02             149.463           2.426e+00     
-172.000         -90.000            9.598e-02           4.031e-02             195.967           5.567e-02             143.863           2.089e+00     
-171.000         -90.000            7.197e-02           2.956e-02             196.813           4.241e-02             136.573           1.780e+00     
-170.000         -90.000            4.952e-02           1.749e-02             198.493           3.203e-02             127.163           1.573e+00     
-169.000         -90.000            3.181e-02           7.111e-03             202.614           2.470e-02             115.335           1.868e+00     
-168.000         -90.000            2.137e-02           1.078e-03             221.439           2.030e-02             101.336           5.085e+00     
-167.000         -90.000            1.949e-02           1.079e-03             341.498           1.841e-02              86.310           4.291e+00     
-166.000         -90.000            2.592e-02           7.425e-03               0.670           1.849e-02              71.940           1.771e+00     
-165.000         -90.000            3.884e-02           1.897e-02               5.065           1.987e-02              59.465           1.947e+00     
-164.000         -90.000            5.525e-02           3.338e-02               7.164           2.187e-02              49.216           2.680e+00     
-163.000         -90.000            7.152e-02           4.764e-02               8.626           2.389e-02              40.932           3.697e+00     
