Theta [deg.]  Phi   [deg.]  Abs(Dir.)[      ]   Abs(Theta)[      ]  Phase(Theta)[deg.]  Abs(Phi  )[      ]  Phase(Phi  )[deg.]  Ax.Ratio[      ]    
------------------------------------------------------------------------------------------------------------------------------------------------------
-180.000         -90.000            1.044e-02           7.036e-07             248.219           1.044e-02             327.397           1.240e+02     
-179.000         -90.000            1.722e-02           6.341e-03             135.843           1.088e-02             325.789           1.192e+01     
-178.000         -90.000            3.218e-02           1.999e-02             135.768           1.219e-02             321.192           2.176e+01     
-177.000         -90.000            4.367e-02           2.917e-02             136.154           1.450e-02             314.816           9.098e+01     
-176.000         -90.000            4.376e-02           2.596e-02             137.234           1.780e-02             307.909           1.248e+01     
-175.000         -90.000            3.494e-02           1.313e-02             140.357           2.181e-02             301.239           6.142e+00     
-174.000         -90.000            2.781e-02           1.902e-03             157.236           2.591e-02             295.049           5.725e+00     
-173.000         -90.000            3.168e-02           2.438e-03             287.459           2.924e-02             289.262           1.193e+02     
-172.000         -90.000            4.614e-02           1.513e-02             301.805           3.101e-02             283.667           6.693e+00     
-171.000         -90.000            6.083e-02           3.009e-02             305.001           3.073e-02             278.017           4.168e+00     
-170.000         -90.000            6.367e-02           3.529e-02             306.776           2.838e-02             272.047           3.221e+00     
-169.000         -90.000            5.090e-02           2.646e-02             309.014           2.444e-02             265.466           2.506e+00     
-168.000         -90.000            3.044e-02           1.076e-02             314.714           1.968e-02             257.932           2.001e+00     
-167.000         -90.000            1.593e-02           9.983e-04             355.252           1.493e-02             249.031           4.050e+00     
-166.000         -90.000            1.627e-02           5.407e-03             100.288           1.086e-02             238.304           2.819e+00     
-165.000         -90.000            2.891e-02           2.108e-02             111.201           7.837e-03             225.419           1.955e+00     
-164.000         -90.000            4.220e-02           3.631e-02             115.010           5.891e-03             210.623           2.499e+00     
-163.000         -90.000            4.464e-02           3.981e-02             118.273           4.839e-03             195.206           2.965e+00     
