Theta [deg.]  Phi   [deg.]  Abs(Dir.)[      ]   Abs(Theta)[      ]  Phase(Theta)[deg.]  Abs(Phi  )[      ]  Phase(Phi  )[deg.]  Ax.Ratio[      ]    
------------------------------------------------------------------------------------------------------------------------------------------------------
-180.000         -90.000            2.812e-03           1.780e-07             286.249           2.812e-03              70.539           2.154e+02     
-179.000         -90.000            7.256e-03           4.545e-03             173.988           2.711e-03              69.015           1.450e+00     
-178.000         -90.000            1.830e-02           1.585e-02             173.957           2.445e-03              64.381           2.757e+00     
-177.000         -90.000            3.014e-02           2.803e-02             174.179           2.111e-03              56.227           4.197e+00     
-176.000         -90.000            3.655e-02           3.472e-02             174.676           1.831e-03              44.285           5.847e+00     
-175.000         -90.000            3.412e-02           3.241e-02             175.661           1.708e-03              29.278           8.161e+00     
-174.000         -90.000            2.409e-02           2.230e-02             177.738           1.788e-03              13.466           1.400e+01     
-173.000         -90.000            1.178e-02           9.738e-03             183.146           2.046e-03             359.354           3.990e+01     
-172.000         -90.000            3.919e-03           1.526e-03             209.495           2.393e-03             348.006           2.729e+00     
-171.000         -90.000            5.160e-03           2.455e-03             316.769           2.705e-03             339.179           5.054e+00     
-170.000         -90.000            1.569e-02           1.283e-02             335.200           2.862e-03             332.218           4.975e+01     
-169.000         -90.000            3.099e-02           2.820e-02             339.902           2.786e-03             326.525           1.504e+01     
-168.000         -90.000            4.399e-02           4.152e-02             342.161           2.464e-03             321.658           1.233e+01     
-167.000         -90.000            4.847e-02           4.652e-02             343.864           1.947e-03             317.308           1.130e+01     
-166.000         -90.000            4.215e-02           4.082e-02             345.870           1.335e-03             313.243           1.050e+01     
-165.000         -90.000            2.784e-02           2.709e-02             349.272           7.475e-04             309.258           9.516e+00     
-164.000         -90.000            1.216e-02           1.187e-02             357.296           2.924e-04             304.999           8.128e+00     
-163.000         -90.000            2.557e-03           2.515e-03              29.582           4.141e-05             298.422           7.796e+00     
