Theta [deg.]  Phi   [deg.]  Abs(Dir.)[      ]   Abs(Theta)[      ]  Phase(Theta)[deg.]  Abs(Phi  )[      ]  Phase(Phi  )[deg.]  Ax.Ratio[      ]    
------------------------------------------------------------------------------------------------------------------------------------------------------
-180.000         -90.000            4.648e-04           1.519e-08              34.600           4.648e-04             179.762           3.062e+02     
-179.000         -90.000            5.938e-03           5.524e-03              71.938           4.137e-04             179.125           3.852e+00     
-178.000         -90.000            1.912e-02           1.883e-02              72.105           2.825e-04             176.928           8.455e+00     
-177.000         -90.000            3.227e-02           3.214e-02              72.398           1.279e-04             171.270           1.605e+01     
-176.000         -90.000            3.772e-02           3.770e-02              72.943           2.216e-05             147.312           4.283e+01     
-175.000         -90.000            3.235e-02           3.232e-02              74.004           2.791e-05              36.256           5.562e+01     
-174.000         -90.000            1.940e-02           1.922e-02              76.346           1.734e-04              14.110           1.192e+01     
-173.000         -90.000            6.495e-03           6.056e-03              83.503           4.385e-04               7.114           3.840e+00     
-172.000         -90.000            1.191e-03           4.348e-04             153.136           7.564e-04               2.407           3.998e+00     
-171.000         -90.000            6.520e-03           5.488e-03             232.575           1.033e-03             358.032           3.033e+00     
-170.000         -90.000            1.932e-02           1.814e-02             240.781           1.177e-03             353.236           4.290e+00     
-169.000         -90.000            3.214e-02           3.100e-02             244.225           1.138e-03             347.372           5.369e+00     
-168.000         -90.000            3.767e-02           3.674e-02             247.135           9.290e-04             339.428           6.294e+00     
-167.000         -90.000            3.294e-02           3.231e-02             251.078           6.280e-04             327.223           7.396e+00     
-166.000         -90.000            2.103e-02           2.067e-02             258.360           3.604e-04             305.492           1.042e+01     
-165.000         -90.000            9.197e-03           8.942e-03             276.167           2.549e-04             267.092           3.860e+01     
-164.000         -90.000            4.674e-03           4.278e-03             325.707           3.961e-04             227.706           3.325e+00     
-163.000         -90.000            1.054e-02           9.752e-03              13.183           7.885e-04             204.536           1.926e+01     
