Theta [deg.]  Phi   [deg.]  Abs(Dir.)[      ]   Abs(Theta)[      ]  Phase(Theta)[deg.]  Abs(Phi  )[      ]  Phase(Phi  )[deg.]  Ax.Ratio[      ]    
------------------------------------------------------------------------------------------------------------------------------------------------------
-180.000         -90.000            7.303e-03           1.254e-07              34.409           7.303e-03             113.347           2.459e+02     
-179.000         -90.000            1.284e-02           5.421e-03               4.598           7.422e-03             110.323           1.377e+00     
-178.000         -90.000            2.499e-02           1.702e-02               4.727           7.963e-03             101.955           1.494e+00     
-177.000         -90.000            3.435e-02           2.503e-02               5.139           9.326e-03              90.388           1.650e+00     
-176.000         -90.000            3.456e-02           2.273e-02               6.056           1.183e-02              78.425           1.578e+00     
-175.000         -90.000            2.752e-02           1.215e-02               8.355           1.536e-02              67.884           1.772e+00     
-174.000         -90.000            2.149e-02           2.186e-03              18.289           1.931e-02              59.128           4.853e+00     
-173.000         -90.000            2.363e-02           1.002e-03             157.901           2.263e-02              51.777           4.963e+00     
-172.000         -90.000            3.344e-02           9.164e-03             175.527           2.428e-02              45.312           2.543e+00     
-171.000         -90.000            4.298e-02           1.934e-02             179.672           2.364e-02              39.277           2.795e+00     
-170.000         -90.000            4.349e-02           2.275e-02             183.312           2.073e-02              33.290           3.740e+00     
-169.000         -90.000            3.301e-02           1.673e-02             189.477           1.628e-02              26.984           6.495e+00     
-168.000         -90.000            1.835e-02           7.008e-03             205.742           1.134e-02              19.924           2.026e+01     
-167.000         -90.000            9.700e-03           2.749e-03             263.727           6.952e-03              11.479           1.763e+00     
-166.000         -90.000            1.241e-02           8.670e-03             315.234           3.741e-03               0.624           2.689e+00     
-165.000         -90.000            2.267e-02           2.085e-02             329.649           1.823e-03             345.875           1.308e+01     
-164.000         -90.000            3.068e-02           2.977e-02             335.876           9.058e-04             326.575           3.652e+01     
-163.000         -90.000            2.868e-02           2.813e-02             340.642           5.521e-04             307.344           1.318e+01     
