Theta [deg.]  Phi   [deg.]  Abs(Dir.)[      ]   Abs(Theta)[      ]  Phase(Theta)[deg.]  Abs(Phi  )[      ]  Phase(Phi  )[deg.]  Ax.Ratio[      ]    
------------------------------------------------------------------------------------------------------------------------------------------------------
-180.000         -90.000            6.575e-03           1.086e-07             271.228           6.575e-03              48.399           3.162e+02     
-179.000         -90.000            1.265e-02           6.197e-03             204.231           6.458e-03              45.707           5.275e+00     
-178.000         -90.000            2.621e-02           1.995e-02             204.402           6.263e-03              37.781           1.003e+01     
-177.000         -90.000            3.697e-02           3.061e-02             204.985           6.360e-03              25.571           2.590e+02     
-176.000         -90.000            3.709e-02           3.000e-02             206.291           7.090e-03              11.454           9.829e+00     
-175.000         -90.000            2.723e-02           1.870e-02             209.449           8.528e-03             358.222           3.903e+00     
-174.000         -90.000            1.598e-02           5.608e-03             220.216           1.037e-02             347.290           2.164e+00     
-173.000         -90.000            1.296e-02           9.234e-04             306.144           1.204e-02             338.622           7.100e+00     
-172.000         -90.000            2.117e-02           8.258e-03             359.558           1.291e-02             331.635           4.136e+00     
-171.000         -90.000            3.442e-02           2.185e-02               7.389           1.258e-02             325.758           2.764e+00     
-170.000         -90.000            4.209e-02           3.104e-02              10.484           1.104e-02             320.575           2.584e+00     
-169.000         -90.000            3.727e-02           2.860e-02              12.950           8.676e-03             315.821           2.401e+00     
-168.000         -90.000            2.236e-02           1.632e-02              17.162           6.038e-03             311.376           1.959e+00     
-167.000         -90.000            7.582e-03           3.913e-03              32.589           3.669e-03             307.286           1.092e+00     
-166.000         -90.000            3.625e-03           1.719e-03             137.149           1.906e-03             303.910           8.629e+00     
-165.000         -90.000            1.379e-02           1.297e-02             168.474           8.242e-04             302.326           5.673e+00     
-164.000         -90.000            3.143e-02           3.113e-02             174.261           2.962e-04             305.489           1.369e+01     
-163.000         -90.000            4.447e-02           4.436e-02             176.773           1.089e-04             318.769           3.282e+01     
