Theta [deg.]  Phi   [deg.]  Abs(Dir.)[      ]   Abs(Theta)[      ]  Phase(Theta)[deg.]  Abs(Phi  )[      ]  Phase(Phi  )[deg.]  Ax.Ratio[      ]    
------------------------------------------------------------------------------------------------------------------------------------------------------
-180.000         -90.000            4.233e-03           2.298e-08             219.856           4.233e-03              69.215           3.162e+02     
-179.000         -90.000            1.003e-02           6.010e-03             109.359           4.020e-03              67.509           2.686e+00     
-178.000         -90.000            2.328e-02           1.981e-02             109.494           3.470e-03              62.106           3.532e+00     
-177.000         -90.000            3.445e-02           3.164e-02             109.883           2.814e-03              52.240           4.077e+00     
-176.000         -90.000            3.543e-02           3.311e-02             110.711           2.320e-03              37.392           3.968e+00     
-175.000         -90.000            2.531e-02           2.314e-02             112.580           2.169e-03              19.139           3.273e+00     
-174.000         -90.000            1.124e-02           8.855e-03             118.082           2.382e-03               1.625           2.298e+00     
-173.000         -90.000            3.492e-03           6.816e-04             162.451           2.810e-03             347.938           2.635e+01     
-172.000         -90.000            8.371e-03           5.158e-03             267.075           3.213e-03             338.287           1.509e+00     
-171.000         -90.000            2.367e-02           2.031e-02             276.483           3.363e-03             331.734           3.171e+00     
-170.000         -90.000            3.996e-02           3.682e-02             279.563           3.140e-03             327.489           4.798e+00     
-169.000         -90.000            4.675e-02           4.417e-02             281.626           2.574e-03             325.254           6.192e+00     
-168.000         -90.000            3.950e-02           3.768e-02             284.124           1.824e-03             325.358           7.089e+00     
-167.000         -90.000            2.268e-02           2.158e-02             288.927           1.097e-03             329.196           7.069e+00     
-166.000         -90.000            6.903e-03           6.332e-03             303.854           5.708e-04             340.361           5.935e+00     
-165.000         -90.000            2.137e-03           1.811e-03              25.619           3.253e-04               4.228           7.498e+00     
-164.000         -90.000            1.137e-02           1.104e-02              73.283           3.337e-04              32.800           9.016e+00     
-163.000         -90.000            2.888e-02           2.839e-02              83.326           4.911e-04              48.413           1.344e+01     
