Theta [deg.]  Phi   [deg.]  Abs(Dir.)[      ]   Abs(Theta)[      ]  Phase(Theta)[deg.]  Abs(Phi  )[      ]  Phase(Phi  )[deg.]  Ax.Ratio[      ]    
------------------------------------------------------------------------------------------------------------------------------------------------------
-180.000         -90.000            1.539e-04           2.212e-08              83.902           1.539e-04             107.437           2.089e+02     
-179.000         -90.000            5.335e-03           5.157e-03             231.798           1.779e-04             100.430           7.284e+00     
-178.000         -90.000            1.763e-02           1.735e-02             232.073           2.852e-04              85.487           1.433e+01     
-177.000         -90.000            2.929e-02           2.874e-02             232.581           5.519e-04              72.446           2.160e+01     
-176.000         -90.000            3.305e-02           3.201e-02             233.544           1.038e-03              63.869           3.196e+01     
-175.000         -90.000            2.677e-02           2.505e-02             235.512           1.726e-03              58.356           8.207e+01     
-174.000         -90.000            1.489e-02           1.240e-02             240.382           2.492e-03              54.550           2.632e+01     
-173.000         -90.000            5.557e-03           2.422e-03             261.028           3.135e-03              51.685           3.856e+00     
-172.000         -90.000            5.507e-03           2.062e-03               7.874           3.446e-03              49.389           2.754e+00     
-171.000         -90.000            1.568e-02           1.238e-02              32.064           3.294e-03              47.545           9.086e+00     
-170.000         -90.000            3.049e-02           2.779e-02              37.725           2.694e-03              46.278           2.365e+01     
-169.000         -90.000            4.118e-02           3.937e-02              40.549           1.809e-03              46.159           4.990e+01     
-168.000         -90.000            4.119e-02           4.028e-02              42.970           9.073e-04              49.174           6.303e+01     
-167.000         -90.000            3.025e-02           2.997e-02              46.369           2.758e-04              64.675           3.346e+01     
-166.000         -90.000            1.472e-02           1.459e-02              53.618           1.284e-04             131.341           1.091e+01     
-165.000         -90.000            3.949e-03           3.400e-03              80.253           5.487e-04             169.352           2.490e+00     
-164.000         -90.000            4.861e-03           3.383e-03             168.075           1.478e-03             175.178           1.752e+01     
-163.000         -90.000            1.790e-02           1.515e-02             195.549           2.750e-03             173.889           7.378e+00     
