Theta [deg.]  Phi   [deg.]  Abs(Dir.)[      ]   Abs(Theta)[      ]  Phase(Theta)[deg.]  Abs(Phi  )[      ]  Phase(Phi  )[deg.]  Ax.Ratio[      ]    
------------------------------------------------------------------------------------------------------------------------------------------------------
-180.000         -90.000            1.517e-04           9.784e-08               0.947           1.516e-04             301.200           4.558e+01     
-179.000         -90.000            5.562e-03           5.380e-03             101.777           1.816e-04             292.130           3.127e+01     
-178.000         -90.000            1.824e-02           1.792e-02             102.265           3.282e-04             274.291           5.421e+01     
-177.000         -90.000            2.990e-02           2.918e-02             103.050           7.170e-04             260.530           1.701e+01     
-176.000         -90.000            3.310e-02           3.165e-02             104.497           1.447e-03             252.237           9.051e+00     
-175.000         -90.000            2.624e-02           2.374e-02             107.455           2.494e-03             247.059           5.063e+00     
-174.000         -90.000            1.463e-02           1.096e-02             114.973           3.671e-03             243.438           2.555e+00     
-173.000         -90.000            6.854e-03           2.178e-03             147.729           4.676e-03             240.613           1.470e+00     
-172.000         -90.000            8.887e-03           3.682e-03             237.057           5.204e-03             238.244           9.801e+01     
-171.000         -90.000            2.001e-02           1.493e-02             257.917           5.076e-03             236.240           6.057e+00     
-170.000         -90.000            3.313e-02           2.882e-02             264.088           4.314e-03             234.736           5.892e+00     
-169.000         -90.000            3.944e-02           3.630e-02             267.425           3.142e-03             234.231           6.595e+00     
-168.000         -90.000            3.428e-02           3.239e-02             270.513           1.894e-03             236.099           7.613e+00     
-167.000         -90.000            2.043e-02           1.952e-02             275.474           9.042e-04             244.415           9.317e+00     
-166.000         -90.000            6.584e-03           6.183e-03             289.587           4.001e-04             270.675           1.284e+01     
-165.000         -90.000            2.056e-03           1.597e-03               6.931           4.599e-04             311.682           2.525e+00     
-164.000         -90.000            1.093e-02           9.901e-03              58.996           1.028e-03             330.154           3.104e+00     
-163.000         -90.000            2.940e-02           2.743e-02              69.351           1.969e-03             333.173           3.758e+00     
