Theta [deg.]  Phi   [deg.]  Abs(Dir.)[      ]   Abs(Theta)[      ]  Phase(Theta)[deg.]  Abs(Phi  )[      ]  Phase(Phi  )[deg.]  Ax.Ratio[      ]    
------------------------------------------------------------------------------------------------------------------------------------------------------
-180.000         -90.000            2.371e-04           6.265e-07             144.861           2.365e-04              16.979           2.464e+01     
-179.000         -90.000            5.673e-03           5.366e-03             262.751           3.068e-04              10.341           4.411e+00     
-178.000         -90.000            1.832e-02           1.773e-02             263.371           5.946e-04             358.162           5.480e+00     
-177.000         -90.000            2.955e-02           2.827e-02             264.154           1.276e-03             348.661           4.731e+00     
-176.000         -90.000            3.205e-02           2.956e-02             265.526           2.486e-03             342.350           3.558e+00     
-175.000         -90.000            2.503e-02           2.085e-02             268.329           4.187e-03             337.829           2.453e+00     
-174.000         -90.000            1.456e-02           8.460e-03             275.798           6.105e-03             334.139           1.836e+00     
-173.000         -90.000            8.956e-03           1.154e-03             316.764           7.802e-03             330.773           1.225e+01     
-172.000         -90.000            1.259e-02           3.759e-03              50.576           8.828e-03             327.478           1.560e+00     
-171.000         -90.000            2.272e-02           1.382e-02              65.756           8.900e-03             324.145           1.351e+00     
-170.000         -90.000            3.157e-02           2.356e-02              71.207           8.008e-03             320.783           1.936e+00     
-169.000         -90.000            3.212e-02           2.571e-02              75.472           6.408e-03             317.556           2.418e+00     
-168.000         -90.000            2.335e-02           1.883e-02              81.602           4.519e-03             314.909           2.800e+00     
-167.000         -90.000            1.119e-02           8.421e-03              95.938           2.765e-03             313.948           3.477e+00     
-166.000         -90.000            4.366e-03           2.914e-03             145.701           1.453e-03             317.435           1.470e+01     
-165.000         -90.000            8.328e-03           7.604e-03             204.061           7.237e-04             331.632           4.243e+00     
-164.000         -90.000            2.128e-02           2.070e-02             221.356           5.806e-04             358.863           8.976e+00     
-163.000         -90.000            3.530e-02           3.435e-02             228.302           9.501e-04              17.997           1.216e+01     
