Theta [deg.]  Phi   [deg.]  Abs(Dir.)[      ]   Abs(Theta)[      ]  Phase(Theta)[deg.]  Abs(Phi  )[      ]  Phase(Phi  )[deg.]  Ax.Ratio[      ]    
------------------------------------------------------------------------------------------------------------------------------------------------------
-180.000         -90.000            3.710e-04           1.464e-06             270.110           3.695e-04              85.602           2.029e+02     
-179.000         -90.000            4.708e-03           4.228e-03              61.602           4.799e-04              81.034           9.833e+00     
-178.000         -90.000            1.474e-02           1.383e-02              62.131           9.039e-04              72.262           2.365e+01     
-177.000         -90.000            2.311e-02           2.125e-02              62.769           1.860e-03              64.846           1.014e+02     
-176.000         -90.000            2.418e-02           2.064e-02              63.897           3.536e-03              59.398           3.605e+01     
-175.000         -90.000            1.841e-02           1.250e-02              66.350           5.916e-03              55.089           1.087e+01     
-174.000         -90.000            1.197e-02           3.279e-03              74.620           8.693e-03              51.261           5.473e+00     
-173.000         -90.000            1.170e-02           3.912e-04             189.028           1.131e-02              47.528           8.823e+00     
-172.000         -90.000            1.955e-02           6.415e-03             229.822           1.314e-02              43.664           1.981e+01     
-171.000         -90.000            3.082e-02           1.712e-02             235.718           1.370e-02              39.524           7.074e+00     
-170.000         -90.000            3.759e-02           2.473e-02             239.511           1.285e-02              35.002           4.876e+00     
-169.000         -90.000            3.476e-02           2.391e-02             244.232           1.085e-02              30.021           3.557e+00     
-168.000         -90.000            2.397e-02           1.574e-02             252.801           8.229e-03              24.557           2.408e+00     
-167.000         -90.000            1.236e-02           6.776e-03             273.895           5.582e-03              18.728           1.323e+00     
-166.000         -90.000            7.311e-03           3.935e-03             327.220           3.376e-03              13.050           2.376e+00     
-165.000         -90.000            1.102e-02           9.198e-03               9.359           1.822e-03               9.096           3.162e+02     
-164.000         -90.000            1.914e-02           1.823e-02              25.523           9.115e-04              10.979           1.865e+01     
-163.000         -90.000            2.441e-02           2.387e-02              34.556           5.445e-04              25.480           4.290e+01     
