Theta [deg.]  Phi   [deg.]  Abs(Dir.)[      ]   Abs(Theta)[      ]  Phase(Theta)[deg.]  Abs(Phi  )[      ]  Phase(Phi  )[deg.]  Ax.Ratio[      ]    
------------------------------------------------------------------------------------------------------------------------------------------------------
-180.000         -90.000            6.370e-04           1.396e-07             321.373           6.369e-04              60.819           6.848e+01     
-179.000         -90.000            5.593e-03           4.922e-03             127.492           6.712e-04              59.088           2.973e+00     
-178.000         -90.000            1.784e-02           1.706e-02             127.642           7.839e-04              54.399           4.891e+00     
-177.000         -90.000            3.070e-02           2.971e-02             127.886           9.902e-04              48.200           5.574e+00     
-176.000         -90.000            3.719e-02           3.590e-02             128.330           1.298e-03              41.806           5.269e+00     
-175.000         -90.000            3.392e-02           3.223e-02             129.176           1.689e-03              35.878           4.376e+00     
-174.000         -90.000            2.288e-02           2.077e-02             130.972           2.110e-03              30.505           3.202e+00     
-173.000         -90.000            1.033e-02           7.862e-03             135.920           2.471e-03              25.485           2.002e+00     
-172.000         -90.000            3.338e-03           6.680e-04             170.126           2.670e-03              20.498           4.732e+00     
-171.000         -90.000            5.846e-03           3.225e-03             285.330           2.621e-03              15.132           1.109e+00     
-170.000         -90.000            1.658e-02           1.429e-02             296.114           2.297e-03               8.778           2.656e+00     
-169.000         -90.000            2.979e-02           2.804e-02             299.710           1.751e-03               0.331           4.665e+00     
-168.000         -90.000            3.842e-02           3.730e-02             302.297           1.127e-03             347.314           8.258e+00     
-167.000         -90.000            3.798e-02           3.735e-02             305.359           6.323e-04             323.628           2.489e+01     
-166.000         -90.000            2.896e-02           2.847e-02             310.324           4.933e-04             282.536           1.652e+01     
-165.000         -90.000            1.663e-02           1.574e-02             320.532           8.900e-04             244.690           4.353e+00     
-164.000         -90.000            8.158e-03           6.259e-03             347.503           1.899e-03             223.790           2.434e+00     
-163.000         -90.000            8.880e-03           5.425e-03              43.877           3.455e-03             211.560           9.510e+00     
