Theta [deg.]  Phi   [deg.]  Abs(Dir.)[      ]   Abs(Theta)[      ]  Phase(Theta)[deg.]  Abs(Phi  )[      ]  Phase(Phi  )[deg.]  Ax.Ratio[      ]    
------------------------------------------------------------------------------------------------------------------------------------------------------
-180.000         -90.000            1.881e-04           4.119e-08             123.870           1.881e-04             183.746           7.813e+01     
-179.000         -90.000            5.261e-03           5.047e-03             296.109           2.140e-04             178.579           5.527e+00     
-178.000         -90.000            1.742e-02           1.710e-02             296.297           3.177e-04             167.004           9.552e+00     
-177.000         -90.000            2.921e-02           2.866e-02             296.666           5.530e-04             155.851           1.153e+01     
-176.000         -90.000            3.348e-02           3.252e-02             297.376           9.611e-04             147.742           1.176e+01     
-175.000         -90.000            2.778e-02           2.625e-02             298.821           1.525e-03             142.154           1.099e+01     
-174.000         -90.000            1.594e-02           1.379e-02             302.300           2.145e-03             138.119           1.066e+01     
-173.000         -90.000            5.710e-03           3.049e-03             315.831           2.661e-03             134.968           1.332e+02     
-172.000         -90.000            4.019e-03           1.118e-03              68.248           2.901e-03             132.322           1.975e+00     
-171.000         -90.000            1.267e-02           9.918e-03              98.596           2.754e-03             129.993           4.428e+00     
-170.000         -90.000            2.716e-02           2.494e-02             104.170           2.225e-03             127.955           8.930e+00     
-169.000         -90.000            3.929e-02           3.784e-02             106.829           1.447e-03             126.439           1.576e+01     
-168.000         -90.000            4.200e-02           4.135e-02             109.098           6.571e-04             126.518           2.688e+01     
-167.000         -90.000            3.366e-02           3.353e-02             112.199           1.215e-04             136.064           4.118e+01     
-166.000         -90.000            1.902e-02           1.896e-02             118.320           5.850e-05             257.520           2.760e+01     
-165.000         -90.000            6.666e-03           6.095e-03             136.287           5.711e-04             276.413           5.388e+00     
-164.000         -90.000            4.079e-03           2.459e-03             207.241           1.621e-03             276.130           1.542e+00     
-163.000         -90.000            1.347e-02           1.043e-02             253.177           3.042e-03             272.927           6.934e+00     
