Theta [deg.]  Phi   [deg.]  Abs(Dir.)[      ]   Abs(Theta)[      ]  Phase(Theta)[deg.]  Abs(Phi  )[      ]  Phase(Phi  )[deg.]  Ax.Ratio[      ]    
------------------------------------------------------------------------------------------------------------------------------------------------------
-180.000         -90.000            2.482e-03           1.268e-07             237.008           2.482e-03              51.556           3.162e+02     
-179.000         -90.000            7.489e-03           4.945e-03              24.076           2.544e-03              50.614           4.504e+00     
-178.000         -90.000            2.021e-02           1.748e-02              24.361           2.726e-03              47.873           7.199e+00     
-177.000         -90.000            3.464e-02           3.160e-02              24.779           3.031e-03              43.724           1.081e+01     
-176.000         -90.000            4.402e-02           4.057e-02              25.471           3.450e-03              38.632           1.628e+01     
-175.000         -90.000            4.412e-02           4.016e-02              26.654           3.957e-03              32.979           3.174e+01     
-174.000         -90.000            3.519e-02           3.069e-02              28.825           4.499e-03              26.980           9.299e+01     
-173.000         -90.000            2.179e-02           1.679e-02              33.450           4.999e-03              20.682           1.067e+01     
-172.000         -90.000            1.051e-02           5.136e-03              47.246           5.370e-03              13.996           3.350e+00     
-171.000         -90.000            6.761e-03           1.227e-03             119.869           5.534e-03               6.725           2.406e+00     
-170.000         -90.000            1.220e-02           6.748e-03             175.084           5.448e-03             358.568           3.307e+01     
-169.000         -90.000            2.396e-02           1.884e-02             186.395           5.124e-03             349.109           8.085e+00     
-168.000         -90.000            3.619e-02           3.155e-02             191.370           4.641e-03             337.805           5.218e+00     
-167.000         -90.000            4.290e-02           3.876e-02             195.075           4.135e-03             324.063           4.116e+00     
-166.000         -90.000            4.094e-02           3.716e-02             199.239           3.782e-03             307.573           3.339e+00     
-165.000         -90.000            3.159e-02           2.783e-02             205.605           3.754e-03             288.960           2.747e+00     
-164.000         -90.000            1.994e-02           1.576e-02             218.042           4.179e-03             270.086           2.753e+00     
-163.000         -90.000            1.255e-02           7.450e-03             247.453           5.101e-03             252.992           2.104e+01     
