Theta [deg.]  Phi   [deg.]  Abs(Dir.)[      ]   Abs(Theta)[      ]  Phase(Theta)[deg.]  Abs(Phi  )[      ]  Phase(Phi  )[deg.]  Ax.Ratio[      ]    
------------------------------------------------------------------------------------------------------------------------------------------------------
-180.000         -90.000            1.102e-02           2.584e-07             339.355           1.102e-02              17.848           3.162e+02     
-179.000         -90.000            1.593e-02           4.900e-03              43.840           1.103e-02              17.544           4.678e+00     
-178.000         -90.000            2.834e-02           1.726e-02              44.191           1.109e-02              16.665           4.195e+00     
-177.000         -90.000            4.246e-02           3.131e-02              44.568           1.115e-02              15.251           4.415e+00     
-176.000         -90.000            5.170e-02           4.053e-02              45.151           1.116e-02              13.351           4.384e+00     
-175.000         -90.000            5.176e-02           4.068e-02              46.146           1.107e-02              11.021           3.988e+00     
-174.000         -90.000            4.257e-02           3.177e-02              47.981           1.079e-02               8.307           3.297e+00     
-173.000         -90.000            2.827e-02           1.802e-02              51.908           1.026e-02               5.241           2.452e+00     
-172.000         -90.000            1.529e-02           5.890e-03              63.337           9.405e-03               1.823           1.775e+00     
-171.000         -90.000            9.289e-03           1.066e-03             127.961           8.223e-03             358.015           3.831e+00     
-170.000         -90.000            1.257e-02           5.827e-03             193.654           6.744e-03             353.710           5.704e+00     
-169.000         -90.000            2.312e-02           1.805e-02             205.636           5.068e-03             348.669           3.753e+00     
-168.000         -90.000            3.561e-02           3.225e-02             210.379           3.357e-03             342.337           4.373e+00     
-167.000         -90.000            4.392e-02           4.209e-02             213.592           1.826e-03             333.206           5.584e+00     
-166.000         -90.000            4.413e-02           4.342e-02             216.912           7.112e-04             315.827           7.912e+00     
-165.000         -90.000            3.618e-02           3.595e-02             221.623           2.330e-04             265.896           1.785e+01     
-164.000         -90.000            2.401e-02           2.346e-02             229.978           5.489e-04             202.706           1.453e+01     
-163.000         -90.000            1.369e-02           1.198e-02             247.840           1.715e-03             180.144           2.923e+00     
