Theta [deg.]  Phi   [deg.]  Abs(Dir.)[      ]   Abs(Theta)[      ]  Phase(Theta)[deg.]  Abs(Phi  )[      ]  Phase(Phi  )[deg.]  Ax.Ratio[      ]    
------------------------------------------------------------------------------------------------------------------------------------------------------
-180.000         -90.000            1.046e-02           2.082e-07             261.296           1.046e-02             284.671           3.162e+02     
-179.000         -90.000            1.533e-02           4.833e-03             339.939           1.050e-02             284.380           2.143e+00     
-178.000         -90.000            2.758e-02           1.696e-02             340.255           1.062e-02             283.559           1.945e+00     
-177.000         -90.000            4.126e-02           3.049e-02             340.572           1.077e-02             282.256           2.226e+00     
-176.000         -90.000            4.978e-02           3.887e-02             341.064           1.092e-02             280.537           2.351e+00     
-175.000         -90.000            4.902e-02           3.805e-02             341.926           1.097e-02             278.471           2.235e+00     
-174.000         -90.000            3.932e-02           2.848e-02             343.581           1.083e-02             276.118           1.896e+00     
-173.000         -90.000            2.528e-02           1.486e-02             347.354           1.043e-02             273.523           1.402e+00     
-172.000         -90.000            1.351e-02           3.846e-03               0.168           9.669e-03             270.703           1.586e+00     
-171.000         -90.000            9.413e-03           8.810e-04              93.602           8.532e-03             267.649           3.307e+01     
-170.000         -90.000            1.461e-02           7.570e-03             138.398           7.044e-03             264.315           1.961e+00     
-169.000         -90.000            2.627e-02           2.096e-02             146.180           5.309e-03             260.585           2.300e+00     
-168.000         -90.000            3.847e-02           3.497e-02             149.702           3.502e-03             256.188           3.325e+00     
-167.000         -90.000            4.518e-02           4.333e-02             152.457           1.859e-03             250.372           4.878e+00     
-166.000         -90.000            4.309e-02           4.246e-02             155.720           6.376e-04             240.061           8.201e+00     
-165.000         -90.000            3.322e-02           3.314e-02             160.823           7.166e-05             193.998           3.936e+01     
-164.000         -90.000            2.041e-02           2.009e-02             170.557           3.236e-04              93.894           8.104e+00     
-163.000         -90.000            1.109e-02           9.651e-03             192.650           1.442e-03              77.422           2.948e+00     
