Theta [deg.]  Phi   [deg.]  Abs(Dir.)[      ]   Abs(Theta)[      ]  Phase(Theta)[deg.]  Abs(Phi  )[      ]  Phase(Phi  )[deg.]  Ax.Ratio[      ]    
------------------------------------------------------------------------------------------------------------------------------------------------------
-180.000         -90.000            7.098e-03           1.082e-07             278.650           7.098e-03             265.018           3.162e+02     
-179.000         -90.000            1.149e-02           4.225e-03              85.044           7.263e-03             265.169           3.162e+02     
-178.000         -90.000            2.228e-02           1.455e-02              85.283           7.736e-03             265.562           3.162e+02     
-177.000         -90.000            3.350e-02           2.503e-02              85.726           8.465e-03             266.070           3.162e+02     
-176.000         -90.000            3.899e-02           2.964e-02              86.549           9.355e-03             266.546           3.162e+02     
-175.000         -90.000            3.594e-02           2.569e-02              88.153           1.025e-02             266.871           9.893e+01     
-174.000         -90.000            2.642e-02           1.546e-02              91.728           1.096e-02             266.973           2.444e+01     
-173.000         -90.000            1.629e-02           5.019e-03             102.793           1.127e-02             266.824           7.743e+00     
-172.000         -90.000            1.186e-02           8.644e-04             175.462           1.100e-02             266.431           3.567e+00     
-171.000         -90.000            1.634e-02           6.281e-03             237.399           1.006e-02             265.833           4.072e+00     
-170.000         -90.000            2.794e-02           1.943e-02             247.410           8.505e-03             265.107           7.006e+00     
-169.000         -90.000            4.072e-02           3.422e-02             251.252           6.505e-03             264.404           1.191e+01     
-168.000         -90.000            4.778e-02           4.343e-02             253.769           4.351e-03             264.048           1.943e+01     
-167.000         -90.000            4.495e-02           4.257e-02             256.383           2.384e-03             264.898           3.010e+01     
-166.000         -90.000            3.313e-02           3.221e-02             260.355           9.194e-04             269.995           3.633e+01     
-165.000         -90.000            1.787e-02           1.769e-02             268.394           1.812e-04             298.449           1.988e+01     
-164.000         -90.000            6.640e-03           6.385e-03             290.539           2.550e-04              20.559           5.004e+00     
-163.000         -90.000            4.970e-03           3.889e-03             350.528           1.081e-03              39.331           2.874e+00     
