Theta [deg.]  Phi   [deg.]  Abs(Dir.)[      ]   Abs(Theta)[      ]  Phase(Theta)[deg.]  Abs(Phi  )[      ]  Phase(Phi  )[deg.]  Ax.Ratio[      ]    
------------------------------------------------------------------------------------------------------------------------------------------------------
-180.000         -90.000            1.142e-02           3.034e-07              55.565           1.142e-02             110.847           2.360e+02     
-179.000         -90.000            1.632e-02           4.893e-03             107.614           1.142e-02             110.526           4.293e+01     
-178.000         -90.000            2.872e-02           1.728e-02             107.990           1.144e-02             109.579           7.364e+01     
-177.000         -90.000            4.304e-02           3.160e-02             108.425           1.144e-02             108.038           3.162e+02     
-176.000         -90.000            5.282e-02           4.143e-02             109.103           1.139e-02             105.945           4.413e+01     
-175.000         -90.000            5.364e-02           4.244e-02             110.240           1.120e-02             103.348           2.045e+01     
-174.000         -90.000            4.510e-02           3.427e-02             112.286           1.083e-02             100.280           1.117e+01     
-173.000         -90.000            3.090e-02           2.069e-02             116.435           1.020e-02              96.753           6.151e+00     
-172.000         -90.000            1.719e-02           7.909e-03             127.340           9.277e-03              92.749           3.224e+00     
-171.000         -90.000            9.763e-03           1.711e-03             174.917           8.052e-03              88.185           2.175e+00     
-170.000         -90.000            1.148e-02           4.909e-03             247.251           6.571e-03              82.883           7.365e+00     
-169.000         -90.000            2.105e-02           1.611e-02             264.281           4.938e-03              76.467           1.730e+01     
-168.000         -90.000            3.372e-02           3.041e-02             270.489           3.311e-03              68.102           8.709e+00     
-167.000         -90.000            4.346e-02           4.157e-02             274.239           1.893e-03              55.691           7.733e+00     
-166.000         -90.000            4.580e-02           4.490e-02             277.652           9.033e-04              33.268           7.849e+00     
-165.000         -90.000            3.975e-02           3.921e-02             282.011           5.425e-04             349.522           9.220e+00     
-164.000         -90.000            2.830e-02           2.735e-02             289.162           9.532e-04             304.871           2.042e+01     
-163.000         -90.000            1.709e-02           1.491e-02             303.518           2.185e-03             281.609           7.899e+00     
