Theta [deg.]  Phi   [deg.]  Abs(Dir.)[      ]   Abs(Theta)[      ]  Phase(Theta)[deg.]  Abs(Phi  )[      ]  Phase(Phi  )[deg.]  Ax.Ratio[      ]    
------------------------------------------------------------------------------------------------------------------------------------------------------
-180.000         -90.000            3.381e-03           1.670e-07              67.142           3.381e-03             256.268           3.162e+02     
-179.000         -90.000            4.781e-03           1.588e-03              63.428           3.193e-03             257.489           8.623e+00     
-178.000         -90.000            7.831e-03           5.130e-03              63.720           2.701e-03             261.524           6.732e+00     
-177.000         -90.000            1.015e-02           8.040e-03              64.321           2.108e-03             269.420           5.634e+00     
-176.000         -90.000            9.873e-03           8.223e-03              65.526           1.650e-03             282.347           4.236e+00     
-175.000         -90.000            7.098e-03           5.592e-03              68.189           1.506e-03             299.139           2.791e+00     
-174.000         -90.000            3.819e-03           2.096e-03              75.807           1.723e-03             314.484           1.796e+00     
-173.000         -90.000            2.452e-03           2.375e-04             125.689           2.214e-03             324.056           1.064e+01     
-172.000         -90.000            4.030e-03           1.227e-03             214.756           2.803e-03             327.771           1.808e+00     
-171.000         -90.000            7.441e-03           4.138e-03             226.992           3.303e-03             327.051           1.233e+00     
-170.000         -90.000            1.025e-02           6.663e-03             231.645           3.585e-03             323.047           1.365e+00     
-169.000         -90.000            1.048e-02           6.870e-03             235.581           3.609e-03             316.490           1.434e+00     
-168.000         -90.000            8.071e-03           4.657e-03             241.809           3.413e-03             307.906           1.582e+00     
-167.000         -90.000            4.883e-03           1.811e-03             258.103           3.073e-03             297.837           2.893e+00     
-166.000         -90.000            3.317e-03           6.656e-04             319.432           2.652e-03             287.009           4.432e+00     
-165.000         -90.000            4.545e-03           2.365e-03              11.622           2.181e-03             276.403           1.105e+00     
-164.000         -90.000            7.642e-03           5.977e-03              25.888           1.665e-03             267.284           2.330e+00     
-163.000         -90.000            1.028e-02           9.156e-03              32.783           1.122e-03             261.517           4.018e+00     
