Theta [deg.]  Phi   [deg.]  Abs(Dir.)[      ]   Abs(Theta)[      ]  Phase(Theta)[deg.]  Abs(Phi  )[      ]  Phase(Phi  )[deg.]  Ax.Ratio[      ]    
------------------------------------------------------------------------------------------------------------------------------------------------------
-180.000         -90.000            6.027e-03           3.747e-07             108.284           6.026e-03             117.860           3.162e+02     
-179.000         -90.000            8.576e-03           2.572e-03             172.234           6.004e-03             118.520           2.266e+00     
-178.000         -90.000            1.446e-02           8.520e-03             172.726           5.942e-03             120.388           2.089e+00     
-177.000         -90.000            1.973e-02           1.388e-02             173.183           5.855e-03             123.119           2.446e+00     
-176.000         -90.000            2.083e-02           1.509e-02             173.903           5.746e-03             126.183           2.646e+00     
-175.000         -90.000            1.697e-02           1.139e-02             175.292           5.585e-03             128.967           2.550e+00     
-174.000         -90.000            1.058e-02           5.269e-03             178.698           5.311e-03             130.883           2.256e+00     
-173.000         -90.000            5.634e-03           7.731e-04             194.771           4.861e-03             131.439           2.908e+00     
-172.000         -90.000            4.962e-03           7.595e-04             325.228           4.203e-03             130.198           1.062e+01     
-171.000         -90.000            8.406e-03           5.035e-03             341.782           3.371e-03             126.656           3.237e+00     
-170.000         -90.000            1.303e-02           1.056e-02             346.231           2.469e-03             120.008           3.223e+00     
-169.000         -90.000            1.521e-02           1.357e-02             349.634           1.646e-03             108.783           3.391e+00     
-168.000         -90.000            1.317e-02           1.213e-02             354.301           1.046e-03              90.554           3.430e+00     
-167.000         -90.000            8.200e-03           7.447e-03               3.453           7.526e-04              63.706           3.720e+00     
-166.000         -90.000            3.781e-03           3.020e-03              27.925           7.612e-04              33.601           2.518e+01     
-165.000         -90.000            3.271e-03           2.294e-03              86.043           9.773e-04               8.786           1.624e+00     
-164.000         -90.000            7.609e-03           6.355e-03             122.028           1.254e-03             350.033           3.326e+00     
-163.000         -90.000            1.463e-02           1.319e-02             135.030           1.446e-03             334.399           1.000e+01     
