Theta [deg.]  Phi   [deg.]  Abs(Dir.)[      ]   Abs(Theta)[      ]  Phase(Theta)[deg.]  Abs(Phi  )[      ]  Phase(Phi  )[deg.]  Ax.Ratio[      ]    
------------------------------------------------------------------------------------------------------------------------------------------------------
-180.000         -90.000            6.317e-03           3.116e-07             194.052           6.317e-03             218.531           3.162e+02     
-179.000         -90.000            8.940e-03           2.638e-03             245.701           6.303e-03             219.076           4.679e+00     
-178.000         -90.000            1.504e-02           8.781e-03             246.144           6.261e-03             220.617           4.485e+00     
-177.000         -90.000            2.066e-02           1.447e-02             246.617           6.196e-03             222.848           5.223e+00     
-176.000         -90.000            2.215e-02           1.606e-02             247.398           6.093e-03             225.316           5.784e+00     
-175.000         -90.000            1.850e-02           1.258e-02             248.907           5.914e-03             227.508           5.702e+00     
-174.000         -90.000            1.193e-02           6.329e-03             252.468           5.601e-03             228.937           4.811e+00     
-173.000         -90.000            6.377e-03           1.281e-03             266.458           5.097e-03             229.185           3.863e+00     
-172.000         -90.000            4.901e-03           5.208e-04              22.812           4.380e-03             227.871           7.529e+00     
-171.000         -90.000            7.751e-03           4.259e-03              50.631           3.492e-03             224.543           1.890e+01     
-170.000         -90.000            1.233e-02           9.792e-03              56.462           2.537e-03             218.479           7.885e+00     
-169.000         -90.000            1.503e-02           1.337e-02              60.100           1.659e-03             208.311           5.887e+00     
-168.000         -90.000            1.368e-02           1.268e-02              64.422           9.990e-04             191.456           4.597e+00     
-167.000         -90.000            9.029e-03           8.385e-03              72.220           6.441e-04             164.821           3.612e+00     
-166.000         -90.000            4.229e-03           3.630e-03              91.823           5.992e-04             131.983           4.209e+00     
-165.000         -90.000            2.787e-03           2.002e-03             145.242           7.849e-04             104.241           3.062e+00     
-164.000         -90.000            6.254e-03           5.187e-03             189.064           1.067e-03              84.100           2.321e+00     
-163.000         -90.000            1.316e-02           1.186e-02             204.434           1.306e-03              68.035           4.635e+00     
