Theta [deg.]  Phi   [deg.]  Abs(Dir.)[      ]   Abs(Theta)[      ]  Phase(Theta)[deg.]  Abs(Phi  )[      ]  Phase(Phi  )[deg.]  Ax.Ratio[      ]    
------------------------------------------------------------------------------------------------------------------------------------------------------
-180.000         -90.000            2.352e-02           4.168e-09             206.358           2.352e-02              71.026           3.162e+02     
-179.000         -90.000            2.628e-02           3.290e-03              98.815           2.299e-02              70.374           6.184e+00     
-178.000         -90.000            3.368e-02           1.221e-02              98.915           2.147e-02              68.361           3.831e+00     
-177.000         -90.000            4.333e-02           2.415e-02              99.150           1.918e-02              64.816           3.263e+00     
-176.000         -90.000            5.211e-02           3.564e-02              99.545           1.647e-02              59.438           3.006e+00     
-175.000         -90.000            5.706e-02           4.333e-02             100.167           1.373e-02              51.794           2.769e+00     
-174.000         -90.000            5.636e-02           4.498e-02             101.141           1.137e-02              41.405           2.482e+00     
-173.000         -90.000            4.990e-02           4.014e-02             102.711           9.759e-03              28.055           2.149e+00     
-172.000         -90.000            3.940e-02           3.026e-02             105.406           9.137e-03              12.379           1.825e+00     
-171.000         -90.000            2.795e-02           1.832e-02             110.526           9.631e-03             356.109           1.734e+00     
-170.000         -90.000            1.922e-02           7.992e-03             122.489           1.122e-02             341.142           2.904e+00     
-169.000         -90.000            1.637e-02           2.598e-03             160.284           1.377e-02             328.400           1.321e+01     
-168.000         -90.000            2.118e-02           4.163e-03             222.854           1.702e-02             317.807           2.034e+00     
-167.000         -90.000            3.350e-02           1.284e-02             246.155           2.066e-02             308.879           1.739e+00     
-166.000         -90.000            5.119e-02           2.684e-02             254.714           2.436e-02             301.115           2.337e+00     
-165.000         -90.000            7.069e-02           4.289e-02             259.148           2.780e-02             294.117           3.266e+00     
-164.000         -90.000            8.786e-02           5.713e-02             262.121           3.073e-02             287.604           4.659e+00     
-163.000         -90.000            9.906e-02           6.610e-02             264.677           3.295e-02             281.377           7.248e+00     
