Theta [deg.]  Phi   [deg.]  Abs(Dir.)[      ]   Abs(Theta)[      ]  Phase(Theta)[deg.]  Abs(Phi  )[      ]  Phase(Phi  )[deg.]  Ax.Ratio[      ]    
------------------------------------------------------------------------------------------------------------------------------------------------------
-180.000         -90.000            1.676e-02           8.202e-08             317.402           1.676e-02             122.314           3.162e+02     
-179.000         -90.000            2.092e-02           4.247e-03             232.312           1.667e-02             121.938           2.197e+00     
-178.000         -90.000            3.122e-02           1.483e-02             232.334           1.639e-02             120.816           1.474e+00     
-177.000         -90.000            4.228e-02           2.639e-02             232.589           1.588e-02             118.994           1.645e+00     
-176.000         -90.000            4.820e-02           3.307e-02             233.118           1.513e-02             116.532           1.877e+00     
-175.000         -90.000            4.554e-02           3.145e-02             234.129           1.409e-02             113.493           2.019e+00     
-174.000         -90.000            3.510e-02           2.237e-02             236.177           1.273e-02             109.916           2.104e+00     
-173.000         -90.000            2.153e-02           1.047e-02             241.197           1.106e-02             105.797           2.440e+00     
-172.000         -90.000            1.114e-02           2.010e-03             262.187           9.132e-03             101.050           7.918e+00     
-171.000         -90.000            8.753e-03           1.716e-03               8.214           7.038e-03              95.446           2.029e+00     
-170.000         -90.000            1.539e-02           1.044e-02              32.819           4.946e-03              88.473           2.122e+00     
-169.000         -90.000            2.776e-02           2.470e-02              38.797           3.062e-03              78.949           4.740e+00     
-168.000         -90.000            3.986e-02           3.825e-02              41.944           1.603e-03              63.834           1.358e+01     
-167.000         -90.000            4.591e-02           4.516e-02              44.678           7.560e-04              35.158           4.749e+01     
-166.000         -90.000            4.312e-02           4.249e-02              48.146           6.334e-04             348.218           9.500e+00     
-165.000         -90.000            3.304e-02           3.180e-02              53.805           1.243e-03             312.547           5.166e+00     
-164.000         -90.000            2.083e-02           1.835e-02              65.005           2.475e-03             293.655           3.857e+00     
-163.000         -90.000            1.286e-02           8.733e-03              91.065           4.124e-03             281.784           1.143e+01     
