Theta [deg.]  Phi   [deg.]  Abs(Dir.)[      ]   Abs(Theta)[      ]  Phase(Theta)[deg.]  Abs(Phi  )[      ]  Phase(Phi  )[deg.]  Ax.Ratio[      ]    
------------------------------------------------------------------------------------------------------------------------------------------------------
-180.000         -90.000            6.952e-03           2.361e-07               4.290           6.952e-03              58.747           2.109e+02     
-179.000         -90.000            9.702e-03           2.743e-03              31.877           6.959e-03              59.089           4.641e+00     
-178.000         -90.000            1.619e-02           9.209e-03              32.278           6.976e-03              60.048           4.089e+00     
-177.000         -90.000            2.242e-02           1.544e-02              32.875           6.980e-03              61.390           4.291e+00     
-176.000         -90.000            2.459e-02           1.767e-02              33.933           6.927e-03              62.791           4.378e+00     
-175.000         -90.000            2.134e-02           1.458e-02              35.961           6.753e-03              63.899           4.360e+00     
-174.000         -90.000            1.454e-02           8.151e-03              40.492           6.388e-03              64.387           4.764e+00     
-173.000         -90.000            8.118e-03           2.336e-03              55.120           5.781e-03              63.967           1.429e+01     
-172.000         -90.000            5.567e-03           6.421e-04             137.552           4.925e-03              62.356           2.892e+00     
-171.000         -90.000            7.854e-03           3.976e-03             185.210           3.878e-03              59.190           1.964e+00     
-170.000         -90.000            1.291e-02           1.015e-02             194.912           2.760e-03              53.853           3.603e+00     
-169.000         -90.000            1.702e-02           1.529e-02             199.584           1.731e-03              45.083           7.553e+00     
-168.000         -90.000            1.719e-02           1.625e-02             203.710           9.416e-04              30.013           4.000e+01     
-167.000         -90.000            1.308e-02           1.258e-02             209.607           4.944e-04               2.815           1.155e+01     
-166.000         -90.000            7.178e-03           6.770e-03             221.701           4.077e-04             322.901           4.164e+00     
-165.000         -90.000            3.339e-03           2.726e-03             254.920           6.128e-04             289.655           4.301e+00     
-164.000         -90.000            4.402e-03           3.424e-03             311.809           9.785e-04             268.593           3.200e+00     
-163.000         -90.000            1.045e-02           9.094e-03             338.375           1.355e-03             253.337           2.604e+00     
