Theta [deg.]  Phi   [deg.]  Abs(Dir.)[      ]   Abs(Theta)[      ]  Phase(Theta)[deg.]  Abs(Phi  )[      ]  Phase(Phi  )[deg.]  Ax.Ratio[      ]    
------------------------------------------------------------------------------------------------------------------------------------------------------
-180.000         -90.000            1.841e-02           6.151e-08             125.305           1.841e-02             280.947           3.162e+02     
-179.000         -90.000            1.995e-02           1.903e-03             342.099           1.805e-02             280.327           3.585e+00     
-178.000         -90.000            2.429e-02           7.290e-03             342.156           1.700e-02             278.405           1.909e+00     
-177.000         -90.000            3.062e-02           1.519e-02             342.401           1.544e-02             275.022           1.500e+00     
-176.000         -90.000            3.773e-02           2.416e-02             342.804           1.357e-02             269.910           1.524e+00     
-175.000         -90.000            4.427e-02           3.258e-02             343.392           1.169e-02             262.705           1.716e+00     
-174.000         -90.000            4.903e-02           3.893e-02             344.216           1.010e-02             253.050           1.964e+00     
-173.000         -90.000            5.115e-02           4.208e-02             345.359           9.077e-03             240.891           2.261e+00     
-172.000         -90.000            5.033e-02           4.148e-02             346.962           8.856e-03             226.910           2.658e+00     
-171.000         -90.000            4.688e-02           3.729e-02             349.257           9.593e-03             212.602           3.309e+00     
-170.000         -90.000            4.170e-02           3.035e-02             352.678           1.135e-02             199.526           4.765e+00     
-169.000         -90.000            3.612e-02           2.204e-02             358.069           1.408e-02             188.478           1.126e+01     
-168.000         -90.000            3.167e-02           1.403e-02               7.263           1.764e-02             179.450           1.474e+01     
-167.000         -90.000            2.981e-02           8.005e-03              24.386           2.181e-02             172.075           3.969e+00     
-166.000         -90.000            3.163e-02           5.340e-03              55.120           2.629e-02             165.936           2.448e+00     
-165.000         -90.000            3.765e-02           6.878e-03              90.002           3.077e-02             160.687           2.309e+00     
-164.000         -90.000            4.769e-02           1.277e-02             111.961           3.493e-02             156.067           2.900e+00     
-163.000         -90.000            6.086e-02           2.241e-02             123.842           3.845e-02             151.885           4.170e+00     
