Theta [deg.]  Phi   [deg.]  Abs(Dir.)[      ]   Abs(Theta)[      ]  Phase(Theta)[deg.]  Abs(Phi  )[      ]  Phase(Phi  )[deg.]  Ax.Ratio[      ]    
------------------------------------------------------------------------------------------------------------------------------------------------------
-180.000         -90.000            7.538e-03           1.321e-07              98.257           7.538e-03             144.626           3.162e+02     
-179.000         -90.000            1.041e-02           2.931e-03             245.626           7.476e-03             143.958           1.672e+00     
-178.000         -90.000            1.769e-02           1.039e-02             245.996           7.303e-03             141.976           1.356e+00     
-177.000         -90.000            2.585e-02           1.882e-02             246.547           7.036e-03             138.729           1.806e+00     
-176.000         -90.000            3.089e-02           2.419e-02             247.465           6.696e-03             134.302           2.181e+00     
-175.000         -90.000            3.027e-02           2.396e-02             249.057           6.301e-03             128.804           2.442e+00     
-174.000         -90.000            2.416e-02           1.830e-02             252.028           5.863e-03             122.354           2.654e+00     
-173.000         -90.000            1.538e-02           9.994e-03             258.493           5.386e-03             115.062           3.207e+00     
-172.000         -90.000            8.097e-03           3.226e-03             277.901           4.871e-03             106.984           1.286e+01     
-171.000         -90.000            5.867e-03           1.546e-03             347.513           4.321e-03              98.108           1.898e+00     
-170.000         -90.000            9.974e-03           6.227e-03              30.332           3.747e-03              88.323           1.912e+00     
-169.000         -90.000            1.882e-02           1.564e-02              41.890           3.173e-03              77.416           4.367e+00     
-168.000         -90.000            2.860e-02           2.597e-02              47.054           2.632e-03              65.077           1.109e+01     
-167.000         -90.000            3.510e-02           3.293e-02              50.528           2.163e-03              50.965           3.162e+02     
-166.000         -90.000            3.549e-02           3.369e-02              53.911           1.797e-03              34.848           1.389e+01     
-165.000         -90.000            2.966e-02           2.811e-02              58.423           1.554e-03              16.859           6.613e+00     
-164.000         -90.000            2.022e-02           1.878e-02              66.049           1.435e-03             357.671           3.935e+00     
-163.000         -90.000            1.131e-02           9.889e-03              81.674           1.422e-03             338.312           2.734e+00     
