Theta [deg.]  Phi   [deg.]  Abs(Dir.)[      ]   Abs(Theta)[      ]  Phase(Theta)[deg.]  Abs(Phi  )[      ]  Phase(Phi  )[deg.]  Ax.Ratio[      ]    
------------------------------------------------------------------------------------------------------------------------------------------------------
-180.000         -90.000            4.564e-03           1.082e-07              91.684           4.564e-03             109.327           3.162e+02     
-179.000         -90.000            6.959e-03           2.411e-03             316.775           4.548e-03             108.724           4.233e+00     
-178.000         -90.000            1.289e-02           8.391e-03             316.890           4.501e-03             106.949           3.950e+00     
-177.000         -90.000            1.914e-02           1.472e-02             317.350           4.420e-03             104.050           4.076e+00     
-176.000         -90.000            2.228e-02           1.798e-02             318.244           4.300e-03             100.100           3.843e+00     
-175.000         -90.000            2.058e-02           1.644e-02             319.919           4.134e-03              95.171           3.236e+00     
-174.000         -90.000            1.487e-02           1.095e-02             323.345           3.917e-03              89.321           2.386e+00     
-173.000         -90.000            8.200e-03           4.555e-03             332.197           3.645e-03              82.573           1.463e+00     
-172.000         -90.000            4.186e-03           8.651e-04              12.539           3.321e-03              74.902           2.365e+00     
-171.000         -90.000            5.096e-03           2.141e-03              96.171           2.955e-03              66.228           3.796e+00     
-170.000         -90.000            1.065e-02           8.083e-03             114.463           2.567e-03              56.414           2.326e+00     
-169.000         -90.000            1.814e-02           1.596e-02             120.658           2.181e-03              45.280           2.823e+00     
-168.000         -90.000            2.382e-02           2.200e-02             124.443           1.823e-03              32.613           3.476e+00     
-167.000         -90.000            2.487e-02           2.336e-02             128.073           1.516e-03              18.251           4.206e+00     
-166.000         -90.000            2.080e-02           1.953e-02             133.026           1.274e-03               2.157           5.328e+00     
-165.000         -90.000            1.371e-02           1.261e-02             141.757           1.100e-03             344.516           9.412e+00     
-164.000         -90.000            7.245e-03           6.256e-03             160.743           9.886e-04             325.730           1.116e+01     
-163.000         -90.000            4.703e-03           3.773e-03             201.943           9.300e-04             306.286           2.120e+00     
