Theta [deg.]  Phi   [deg.]  Abs(Dir.)[      ]   Abs(Theta)[      ]  Phase(Theta)[deg.]  Abs(Phi  )[      ]  Phase(Phi  )[deg.]  Ax.Ratio[      ]    
------------------------------------------------------------------------------------------------------------------------------------------------------
-180.000         -90.000            5.111e-03           1.045e-07             184.425           5.111e-03             208.587           3.162e+02     
-179.000         -90.000            7.573e-03           2.482e-03              29.197           5.091e-03             207.969           9.943e+01     
-178.000         -90.000            1.372e-02           8.687e-03              29.371           5.033e-03             206.153           3.694e+01     
-177.000         -90.000            2.030e-02           1.536e-02              29.858           4.935e-03             203.197           2.005e+01     
-176.000         -90.000            2.381e-02           1.902e-02              30.765           4.794e-03             199.191           1.235e+01     
-175.000         -90.000            2.235e-02           1.774e-02              32.430           4.604e-03             194.232           7.789e+00     
-174.000         -90.000            1.661e-02           1.225e-02              35.747           4.359e-03             188.402           4.737e+00     
-173.000         -90.000            9.547e-03           5.494e-03              43.909           4.052e-03             181.744           2.634e+00     
-172.000         -90.000            4.874e-03           1.189e-03              76.909           3.685e-03             174.246           1.789e+00     
-171.000         -90.000            5.132e-03           1.865e-03             161.862           3.267e-03             165.828           3.003e+01     
-170.000         -90.000            1.038e-02           7.565e-03             184.477           2.818e-03             156.334           4.548e+00     
-169.000         -90.000            1.816e-02           1.580e-02             191.569           2.367e-03             145.538           3.868e+00     
-168.000         -90.000            2.471e-02           2.277e-02             195.558           1.948e-03             133.165           3.934e+00     
-167.000         -90.000            2.687e-02           2.528e-02             199.061           1.587e-03             118.958           4.059e+00     
-166.000         -90.000            2.361e-02           2.230e-02             203.487           1.306e-03             102.794           4.213e+00     
-165.000         -90.000            1.657e-02           1.546e-02             210.789           1.110e-03              84.844           4.730e+00     
-164.000         -90.000            9.235e-03           8.244e-03             225.690           9.917e-04              65.616           9.371e+00     
-163.000         -90.000            5.185e-03           4.248e-03             259.402           9.368e-04              45.781           4.470e+00     
