Theta [deg.]  Phi   [deg.]  Abs(Dir.)[      ]   Abs(Theta)[      ]  Phase(Theta)[deg.]  Abs(Phi  )[      ]  Phase(Phi  )[deg.]  Ax.Ratio[      ]    
------------------------------------------------------------------------------------------------------------------------------------------------------
-180.000         -90.000            6.546e-03           1.170e-07               8.036           6.546e-03              46.158           3.162e+02     
-179.000         -90.000            9.226e-03           2.722e-03             173.905           6.504e-03              45.501           2.378e+00     
-178.000         -90.000            1.600e-02           9.614e-03             174.216           6.387e-03              43.561           2.246e+00     
-177.000         -90.000            2.348e-02           1.728e-02             174.748           6.204e-03              40.401           2.816e+00     
-176.000         -90.000            2.790e-02           2.194e-02             175.667           5.963e-03              36.120           3.472e+00     
-175.000         -90.000            2.698e-02           2.131e-02             177.289           5.669e-03              30.835           4.204e+00     
-174.000         -90.000            2.109e-02           1.576e-02             180.380           5.326e-03              24.666           5.411e+00     
-173.000         -90.000            1.304e-02           8.108e-03             187.362           4.927e-03              17.702           1.140e+01     
-172.000         -90.000            6.791e-03           2.317e-03             210.205           4.474e-03               9.979           5.932e+00     
-171.000         -90.000            5.508e-03           1.538e-03             287.484           3.970e-03               1.452           1.747e+00     
-170.000         -90.000            1.002e-02           6.585e-03             322.605           3.431e-03             351.984           4.048e+00     
-169.000         -90.000            1.841e-02           1.552e-02             332.321           2.886e-03             341.340           1.749e+01     
-168.000         -90.000            2.691e-02           2.454e-02             336.977           2.371e-03             329.198           2.602e+01     
-167.000         -90.000            3.169e-02           2.977e-02             340.381           1.925e-03             315.209           9.741e+00     
-166.000         -90.000            3.060e-02           2.903e-02             344.004           1.576e-03             299.138           6.254e+00     
-165.000         -90.000            2.418e-02           2.284e-02             349.216           1.339e-03             281.101           4.490e+00     
-164.000         -90.000            1.538e-02           1.417e-02             358.615           1.210e-03             261.730           3.452e+00     
-163.000         -90.000            8.203e-03           7.030e-03              18.977           1.173e-03             241.987           3.934e+00     
