Theta [deg.]  Phi   [deg.]  Abs(Dir.)[      ]   Abs(Theta)[      ]  Phase(Theta)[deg.]  Abs(Phi  )[      ]  Phase(Phi  )[deg.]  Ax.Ratio[      ]    
------------------------------------------------------------------------------------------------------------------------------------------------------
-180.000         -90.000            4.080e-03           1.192e-07             359.030           4.080e-03               9.516           3.162e+02     
-179.000         -90.000            6.409e-03           2.343e-03             244.890           4.066e-03               8.917           2.007e+00     
-178.000         -90.000            1.213e-02           8.104e-03             244.946           4.024e-03               7.144           2.013e+00     
-177.000         -90.000            1.805e-02           1.410e-02             245.375           3.953e-03               4.232           2.332e+00     
-176.000         -90.000            2.085e-02           1.700e-02             246.247           3.847e-03               0.233           2.406e+00     
-175.000         -90.000            1.893e-02           1.523e-02             247.924           3.701e-03             355.196           2.182e+00     
-174.000         -90.000            1.330e-02           9.784e-03             251.450           3.513e-03             349.163           1.701e+00     
-173.000         -90.000            7.043e-03           3.761e-03             261.052           3.281e-03             342.146           1.186e+00     
-172.000         -90.000            3.659e-03           6.495e-04             310.350           3.010e-03             334.125           6.334e+00     
-171.000         -90.000            5.134e-03           2.426e-03              29.330           2.708e-03             325.047           1.597e+00     
-170.000         -90.000            1.086e-02           8.466e-03              44.397           2.391e-03             314.822           1.882e+00     
-169.000         -90.000            1.793e-02           1.585e-02              49.907           2.077e-03             303.335           2.917e+00     
-168.000         -90.000            2.270e-02           2.091e-02              53.538           1.784e-03             290.471           4.196e+00     
-167.000         -90.000            2.271e-02           2.119e-02              57.325           1.527e-03             276.149           6.208e+00     
-166.000         -90.000            1.802e-02           1.670e-02              62.894           1.318e-03             260.376           1.270e+01     
-165.000         -90.000            1.112e-02           9.959e-03              73.417           1.160e-03             243.284           1.854e+01     
-164.000         -90.000            5.702e-03           4.651e-03              97.888           1.051e-03             225.152           2.895e+00     
-163.000         -90.000            4.696e-03           3.709e-03             145.298           9.868e-04             206.322           2.387e+00     
