Theta [deg.]  Phi   [deg.]  Abs(Dir.)[      ]   Abs(Theta)[      ]  Phase(Theta)[deg.]  Abs(Phi  )[      ]  Phase(Phi  )[deg.]  Ax.Ratio[      ]    
------------------------------------------------------------------------------------------------------------------------------------------------------
-180.000         -90.000            1.027e-02           1.847e-07             270.693           1.027e-02             340.625           2.510e+02     
-179.000         -90.000            1.368e-02           3.543e-03              27.224           1.014e-02             339.973           2.744e+00     
-178.000         -90.000            2.241e-02           1.263e-02              27.674           9.780e-03             337.998           2.188e+00     
-177.000         -90.000            3.242e-02           2.319e-02              28.238           9.234e-03             334.710           2.325e+00     
-176.000         -90.000            3.907e-02           3.051e-02              29.129           8.558e-03             330.129           2.405e+00     
-175.000         -90.000            3.914e-02           3.133e-02              30.621           7.812e-03             324.297           2.296e+00     
-174.000         -90.000            3.238e-02           2.534e-02              33.298           7.049e-03             317.284           1.996e+00     
-173.000         -90.000            2.162e-02           1.532e-02              38.750           6.302e-03             309.180           1.559e+00     
-172.000         -90.000            1.159e-02           6.005e-03              53.044           5.589e-03             300.074           1.512e+00     
-171.000         -90.000            6.865e-03           1.948e-03             105.041           4.917e-03             290.021           2.551e+01     
-170.000         -90.000            9.836e-03           5.549e-03             163.138           4.287e-03             279.012           1.627e+00     
-169.000         -90.000            1.967e-02           1.597e-02             179.663           3.702e-03             266.942           2.080e+00     
-168.000         -90.000            3.260e-02           2.942e-02             186.185           3.178e-03             253.627           3.352e+00     
-167.000         -90.000            4.351e-02           4.077e-02             190.020           2.738e-03             238.851           5.282e+00     
-166.000         -90.000            4.808e-02           4.568e-02             193.214           2.408e-03             222.517           9.260e+00     
-165.000         -90.000            4.457e-02           4.236e-02             196.876           2.212e-03             204.844           3.319e+01     
-164.000         -90.000            3.452e-02           3.236e-02             202.296           2.161e-03             186.479           1.508e+01     
-163.000         -90.000            2.214e-02           1.989e-02             212.062           2.249e-03             168.321           4.568e+00     
