Theta [deg.]  Phi   [deg.]  Abs(Dir.)[      ]   Abs(Theta)[      ]  Phase(Theta)[deg.]  Abs(Phi  )[      ]  Phase(Phi  )[deg.]  Ax.Ratio[      ]    
------------------------------------------------------------------------------------------------------------------------------------------------------
-180.000         -90.000            2.887e-03           1.960e-07              85.543           2.887e-03              65.421           3.162e+02     
-179.000         -90.000            5.035e-03           2.150e-03              36.344           2.884e-03              64.705           4.006e+00     
-178.000         -90.000            1.015e-02           7.269e-03              36.338           2.878e-03              62.578           4.810e+00     
-177.000         -90.000            1.517e-02           1.230e-02              36.684           2.868e-03              59.085           6.549e+00     
-176.000         -90.000            1.711e-02           1.425e-02              37.449           2.855e-03              54.295           9.144e+00     
-175.000         -90.000            1.482e-02           1.198e-02              39.013           2.837e-03              48.302           1.568e+01     
-174.000         -90.000            9.686e-03           6.873e-03              42.575           2.813e-03              41.216           9.289e+01     
-173.000         -90.000            4.798e-03           2.020e-03              54.087           2.778e-03              33.152           5.486e+00     
-172.000         -90.000            3.081e-03           3.550e-04             136.785           2.726e-03              24.215           3.065e+00     
-171.000         -90.000            5.579e-03           2.930e-03             191.769           2.649e-03              14.477           4.237e+01     
-170.000         -90.000            1.085e-02           8.303e-03             200.798           2.543e-03               3.958           8.023e+00     
-169.000         -90.000            1.581e-02           1.341e-02             204.886           2.404e-03             352.613           5.016e+00     
-168.000         -90.000            1.760e-02           1.536e-02             208.368           2.238e-03             340.345           3.773e+00     
-167.000         -90.000            1.523e-02           1.317e-02             213.109           2.058e-03             327.033           2.849e+00     
-166.000         -90.000            1.017e-02           8.281e-03             221.986           1.885e-03             312.611           2.096e+00     
-165.000         -90.000            5.476e-03           3.742e-03             243.508           1.735e-03             297.152           2.218e+00     
-164.000         -90.000            4.094e-03           2.476e-03             292.938           1.619e-03             280.916           9.717e+00     
-163.000         -90.000            7.128e-03           5.595e-03             331.804           1.533e-03             264.289           2.174e+00     
