Theta [deg.]  Phi   [deg.]  Abs(Dir.)[      ]   Abs(Theta)[      ]  Phase(Theta)[deg.]  Abs(Phi  )[      ]  Phase(Phi  )[deg.]  Ax.Ratio[      ]    
------------------------------------------------------------------------------------------------------------------------------------------------------
-180.000         -90.000            1.602e-04           2.174e-07             177.637           1.600e-04             155.006           7.058e+01     
-179.000         -90.000            2.439e-03           2.258e-03             322.542           1.805e-04             155.647           1.679e+01     
-178.000         -90.000            7.947e-03           7.698e-03             322.950           2.496e-04             156.897           2.374e+01     
-177.000         -90.000            1.332e-02           1.294e-02             323.504           3.823e-04             157.383           2.493e+01     
-176.000         -90.000            1.531e-02           1.471e-02             324.480           5.935e-04             156.357           2.513e+01     
-175.000         -90.000            1.281e-02           1.192e-02             326.401           8.890e-04             153.684           3.101e+01     
-174.000         -90.000            7.576e-03           6.316e-03             330.926           1.260e-03             149.448           1.042e+02     
-173.000         -90.000            3.180e-03           1.494e-03             347.776           1.686e-03             143.782           4.715e+00     
-172.000         -90.000            2.830e-03           6.905e-04              88.310           2.140e-03             136.806           2.745e+00     
-171.000         -90.000            7.404e-03           4.808e-03             121.332           2.596e-03             128.644           1.640e+01     
-170.000         -90.000            1.486e-02           1.182e-02             128.435           3.036e-03             119.437           1.579e+01     
-169.000         -90.000            2.139e-02           1.794e-02             132.115           3.447e-03             109.341           6.881e+00     
-168.000         -90.000            2.367e-02           1.984e-02             135.511           3.822e-03              98.537           4.285e+00     
-167.000         -90.000            2.076e-02           1.661e-02             140.323           4.154e-03              87.214           2.763e+00     
-166.000         -90.000            1.470e-02           1.027e-02             149.453           4.429e-03              75.552           1.670e+00     
-165.000         -90.000            9.293e-03           4.666e-03             171.399           4.627e-03              63.713           1.369e+00     
-164.000         -90.000            7.901e-03           3.182e-03             219.726           4.720e-03              51.828           9.621e+00     
-163.000         -90.000            1.151e-02           6.841e-03             257.223           4.671e-03              39.961           3.034e+00     
