Theta [deg.]  Phi   [deg.]  Abs(Dir.)[      ]   Abs(Theta)[      ]  Phase(Theta)[deg.]  Abs(Phi  )[      ]  Phase(Phi  )[deg.]  Ax.Ratio[      ]    
------------------------------------------------------------------------------------------------------------------------------------------------------
-180.000         -90.000            1.363e-03           1.010e-07             138.519           1.363e-03             290.492           2.473e+02     
-179.000         -90.000            3.709e-03           2.331e-03             105.180           1.378e-03             289.582           2.693e+01     
-178.000         -90.000            9.565e-03           8.146e-03             105.389           1.420e-03             286.961           1.025e+02     
-177.000         -90.000            1.611e-02           1.462e-02             105.966           1.490e-03             282.903           6.460e+01     
-176.000         -90.000            2.019e-02           1.861e-02             107.022           1.584e-03             277.778           2.311e+01     
-175.000         -90.000            1.991e-02           1.821e-02             108.902           1.693e-03             271.946           1.221e+01     
-174.000         -90.000            1.549e-02           1.369e-02             112.458           1.802e-03             265.679           6.774e+00     
-173.000         -90.000            9.236e-03           7.346e-03             120.275           1.890e-03             259.119           3.479e+00     
-172.000         -90.000            4.384e-03           2.450e-03             143.513           1.933e-03             252.282           1.426e+00     
-171.000         -90.000            3.551e-03           1.635e-03             210.092           1.915e-03             245.086           3.184e+00     
-170.000         -90.000            7.461e-03           5.633e-03             247.117           1.829e-03             237.373           1.366e+01     
-169.000         -90.000            1.458e-02           1.290e-02             258.541           1.678e-03             228.933           6.180e+00     
-168.000         -90.000            2.182e-02           2.034e-02             263.921           1.482e-03             219.514           5.499e+00     
-167.000         -90.000            2.599e-02           2.473e-02             267.619           1.263e-03             208.839           5.248e+00     
-166.000         -90.000            2.525e-02           2.420e-02             271.269           1.048e-03             196.630           5.000e+00     
-165.000         -90.000            1.997e-02           1.911e-02             276.238           8.570e-04             182.655           4.733e+00     
-164.000         -90.000            1.255e-02           1.184e-02             284.966           7.028e-04             166.795           4.721e+00     
-163.000         -90.000            6.282e-03           5.692e-03             303.974           5.894e-04             149.097           7.952e+00     
