Theta [deg.]  Phi   [deg.]  Abs(Dir.)[      ]   Abs(Theta)[      ]  Phase(Theta)[deg.]  Abs(Phi  )[      ]  Phase(Phi  )[deg.]  Ax.Ratio[      ]    
------------------------------------------------------------------------------------------------------------------------------------------------------
-180.000         -90.000            3.054e-04           1.867e-07             352.883           3.053e-04              26.454           7.315e+01     
-179.000         -90.000            2.233e-03           1.906e-03              83.575           3.267e-04              24.634           2.966e+00     
-178.000         -90.000            6.898e-03           6.500e-03              84.148           3.977e-04              19.704           4.535e+00     
-177.000         -90.000            1.159e-02           1.106e-02              84.816           5.313e-04              13.156           4.831e+00     
-176.000         -90.000            1.363e-02           1.289e-02              85.919           7.409e-04               6.223           4.247e+00     
-175.000         -90.000            1.192e-02           1.089e-02              87.982           1.032e-03             359.438           3.250e+00     
-174.000         -90.000            7.661e-03           6.269e-03              92.538           1.392e-03             352.826           2.170e+00     
-173.000         -90.000            3.662e-03           1.869e-03             107.139           1.793e-03             346.186           1.767e+00     
-172.000         -90.000            2.723e-03           5.335e-04             189.029           2.190e-03             339.268           4.871e+00     
-171.000         -90.000            5.997e-03           3.461e-03             236.939           2.536e-03             331.819           1.194e+00     
-170.000         -90.000            1.227e-02           9.474e-03             246.538           2.794e-03             323.598           1.928e+00     
-169.000         -90.000            1.857e-02           1.562e-02             250.847           2.948e-03             314.387           2.684e+00     
-168.000         -90.000            2.181e-02           1.879e-02             254.155           3.012e-03             304.024           3.505e+00     
-167.000         -90.000            2.045e-02           1.743e-02             258.078           3.019e-03             292.472           4.781e+00     
-166.000         -90.000            1.539e-02           1.238e-02             264.478           3.015e-03             279.888           9.375e+00     
-165.000         -90.000            9.472e-03           6.439e-03             277.915           3.033e-03             266.665           1.089e+01     
-164.000         -90.000            5.947e-03           2.871e-03             311.807           3.077e-03             253.330           1.789e+00     
-163.000         -90.000            6.751e-03           3.632e-03               2.423           3.118e-03             240.357           1.816e+00     
