Theta [deg.]  Phi   [deg.]  Abs(Dir.)[      ]   Abs(Theta)[      ]  Phase(Theta)[deg.]  Abs(Phi  )[      ]  Phase(Phi  )[deg.]  Ax.Ratio[      ]    
------------------------------------------------------------------------------------------------------------------------------------------------------
-180.000         -90.000            1.169e-04           2.539e-07              90.127           1.167e-04              43.745           2.964e+01     
-179.000         -90.000            2.543e-03           2.412e-03             260.452           1.302e-04              46.285           7.952e+00     
-178.000         -90.000            8.365e-03           8.187e-03             260.706           1.787e-04              52.020           1.434e+01     
-177.000         -90.000            1.388e-02           1.360e-02             261.150           2.788e-04              56.955           1.733e+01     
-176.000         -90.000            1.560e-02           1.515e-02             261.998           4.461e-04              58.910           1.523e+01     
-175.000         -90.000            1.251e-02           1.182e-02             263.753           6.864e-04              57.644           9.877e+00     
-174.000         -90.000            6.770e-03           5.776e-03             268.164           9.939e-04              53.568           4.767e+00     
-173.000         -90.000            2.393e-03           1.035e-03             287.814           1.358e-03              47.164           1.742e+00     
-172.000         -90.000            2.737e-03           9.619e-04              41.964           1.775e-03              38.897           3.912e+01     
-171.000         -90.000            8.371e-03           6.125e-03              63.620           2.246e-03              29.249           3.730e+00     
-170.000         -90.000            1.666e-02           1.388e-02              68.930           2.775e-03              18.713           3.178e+00     
-169.000         -90.000            2.330e-02           1.995e-02              72.081           3.355e-03               7.717           2.803e+00     
-168.000         -90.000            2.492e-02           2.097e-02              75.426           3.953e-03             356.549           2.368e+00     
-167.000         -90.000            2.108e-02           1.656e-02              80.680           4.515e-03             345.333           1.930e+00     
-166.000         -90.000            1.450e-02           9.526e-03              91.390           4.976e-03             334.058           1.822e+00     
-165.000         -90.000            9.455e-03           4.177e-03             118.376           5.278e-03             322.642           4.687e+00     
-164.000         -90.000            9.164e-03           3.779e-03             169.477           5.385e-03             310.993           2.922e+00     
-163.000         -90.000            1.391e-02           8.626e-03             200.598           5.283e-03             299.029           1.332e+00     
