Theta [deg.]  Phi   [deg.]  Abs(Dir.)[      ]   Abs(Theta)[      ]  Phase(Theta)[deg.]  Abs(Phi  )[      ]  Phase(Phi  )[deg.]  Ax.Ratio[      ]    
------------------------------------------------------------------------------------------------------------------------------------------------------
-180.000         -90.000            1.634e-06           4.040e-07             275.873           1.230e-06             118.104           5.958e+00     
-179.000         -90.000            2.432e-03           2.432e-03             136.696           1.204e-07             183.179           1.960e+02     
-178.000         -90.000            8.135e-03           8.127e-03             136.779           8.172e-06             270.733           4.383e+01     
-177.000         -90.000            1.317e-02           1.312e-02             137.390           4.904e-05             271.383           2.278e+01     
-176.000         -90.000            1.407e-02           1.393e-02             138.728           1.355e-04             267.115           1.298e+01     
-175.000         -90.000            1.022e-02           9.968e-03             141.677           2.560e-04             259.640           7.106e+00     
-174.000         -90.000            4.448e-03           4.062e-03             149.931           3.865e-04             248.595           3.287e+00     
-173.000         -90.000            1.116e-03           5.927e-04             197.399           5.238e-04             233.495           3.076e+00     
-172.000         -90.000            3.271e-03           2.557e-03             283.895           7.140e-04             215.017           2.124e+00     
-171.000         -90.000            1.053e-02           9.477e-03             297.817           1.050e-03             195.732           3.089e+00     
-170.000         -90.000            1.921e-02           1.758e-02             302.801           1.629e-03             178.393           4.107e+00     
-169.000         -90.000            2.465e-02           2.216e-02             306.280           2.488e-03             163.866           5.252e+00     
-168.000         -90.000            2.413e-02           2.057e-02             310.358           3.555e-03             151.543           7.676e+00     
-167.000         -90.000            1.861e-02           1.395e-02             317.322           4.662e-03             140.453           4.224e+01     
-166.000         -90.000            1.211e-02           6.509e-03             333.343           5.602e-03             129.743           4.801e+00     
-165.000         -90.000            9.152e-03           2.932e-03              16.927           6.220e-03             118.754           1.540e+00     
-164.000         -90.000            1.191e-02           5.440e-03              66.714           6.469e-03             107.034           2.737e+00     
-163.000         -90.000            1.888e-02           1.246e-02              86.444           6.413e-03              94.347           1.529e+01     
