Theta [deg.]  Phi   [deg.]  Abs(Dir.)[      ]   Abs(Theta)[      ]  Phase(Theta)[deg.]  Abs(Phi  )[      ]  Phase(Phi  )[deg.]  Ax.Ratio[      ]    
------------------------------------------------------------------------------------------------------------------------------------------------------
-180.000         -90.000            1.620e-03           6.031e-08             303.370           1.620e-03             138.149           3.162e+02     
-179.000         -90.000            3.966e-03           2.341e-03             244.276           1.625e-03             137.245           1.425e+00     
-178.000         -90.000            9.907e-03           8.265e-03             244.462           1.642e-03             134.636           2.451e+00     
-177.000         -90.000            1.672e-02           1.505e-02             245.017           1.672e-03             130.539           3.365e+00     
-176.000         -90.000            2.130e-02           1.958e-02             246.033           1.718e-03             125.274           4.025e+00     
-175.000         -90.000            2.158e-02           1.981e-02             247.816           1.774e-03             119.196           4.435e+00     
-174.000         -90.000            1.752e-02           1.569e-02             251.099           1.831e-03             112.622           4.719e+00     
-173.000         -90.000            1.109e-02           9.222e-03             257.941           1.871e-03             105.763           5.541e+00     
-172.000         -90.000            5.468e-03           3.593e-03             276.164           1.876e-03              98.702           4.755e+01     
-171.000         -90.000            3.516e-03           1.687e-03             331.644           1.828e-03              91.397           1.726e+00     
-170.000         -90.000            6.519e-03           4.797e-03              18.404           1.721e-03              83.705           1.996e+00     
-169.000         -90.000            1.357e-02           1.201e-02              33.282           1.558e-03              75.396           4.453e+00     
-168.000         -90.000            2.191e-02           2.056e-02              39.626           1.353e-03              66.167           9.190e+00     
-167.000         -90.000            2.819e-02           2.706e-02              43.420           1.131e-03              55.637           2.404e+01     
-166.000         -90.000            2.981e-02           2.890e-02              46.560           9.172e-04              43.385           1.045e+02     
-165.000         -90.000            2.614e-02           2.540e-02              50.171           7.353e-04              29.019           1.670e+01     
-164.000         -90.000            1.869e-02           1.809e-02              55.670           5.988e-04              12.369           8.158e+00     
-163.000         -90.000            1.053e-02           1.001e-02              66.229           5.120e-04             353.733           4.660e+00     
