Theta [deg.]  Phi   [deg.]  Abs(Dir.)[      ]   Abs(Theta)[      ]  Phase(Theta)[deg.]  Abs(Phi  )[      ]  Phase(Phi  )[deg.]  Ax.Ratio[      ]    
------------------------------------------------------------------------------------------------------------------------------------------------------
-180.000         -90.000            7.184e-04           1.720e-07             165.485           7.183e-04             241.908           6.649e+01     
-179.000         -90.000            2.640e-03           1.907e-03             203.669           7.333e-04             240.461           3.437e+00     
-178.000         -90.000            7.298e-03           6.518e-03             204.068           7.809e-04             236.254           5.904e+00     
-177.000         -90.000            1.214e-02           1.127e-02             204.583           8.688e-04             229.932           8.950e+00     
-176.000         -90.000            1.453e-02           1.353e-02             205.448           1.005e-03             222.349           1.348e+01     
-175.000         -90.000            1.322e-02           1.203e-02             207.036           1.191e-03             214.274           2.768e+01     
-174.000         -90.000            9.031e-03           7.613e-03             210.363           1.419e-03             206.184           3.768e+01     
-173.000         -90.000            4.465e-03           2.801e-03             219.655           1.664e-03             198.229           5.479e+00     
-172.000         -90.000            2.312e-03           4.168e-04             273.613           1.896e-03             190.334           2.156e+00     
-171.000         -90.000            4.140e-03           2.064e-03             352.913           2.076e-03             182.293           1.219e+01     
-170.000         -90.000            9.418e-03           7.241e-03               6.033           2.176e-03             173.831           1.113e+01     
-169.000         -90.000            1.576e-02           1.358e-02              10.892           2.183e-03             164.633           6.387e+00     
-168.000         -90.000            2.016e-02           1.806e-02              14.149           2.104e-03             154.368           4.909e+00     
-167.000         -90.000            2.057e-02           1.860e-02              17.574           1.969e-03             142.731           3.900e+00     
-166.000         -90.000            1.690e-02           1.508e-02              22.560           1.822e-03             129.543           3.043e+00     
-165.000         -90.000            1.112e-02           9.421e-03              31.692           1.703e-03             114.910           2.376e+00     
-164.000         -90.000            6.188e-03           4.549e-03              51.987           1.639e-03              99.334           2.713e+00     
-163.000         -90.000            4.531e-03           2.897e-03              94.841           1.633e-03              83.592           1.058e+01     
