Theta [deg.]  Phi   [deg.]  Abs(Dir.)[      ]   Abs(Theta)[      ]  Phase(Theta)[deg.]  Abs(Phi  )[      ]  Phase(Phi  )[deg.]  Ax.Ratio[      ]    
------------------------------------------------------------------------------------------------------------------------------------------------------
-180.000         -90.000            1.456e-03           8.047e-08             219.400           1.456e-03              34.191           3.162e+02     
-179.000         -90.000            3.811e-03           2.344e-03             174.261           1.467e-03              33.275           2.922e+00     
-178.000         -90.000            9.732e-03           8.232e-03             174.458           1.500e-03              30.639           4.468e+00     
-177.000         -90.000            1.643e-02           1.488e-02             175.034           1.555e-03              26.542           6.381e+00     
-176.000         -90.000            2.078e-02           1.915e-02             176.090           1.631e-03              21.343           8.599e+00     
-175.000         -90.000            2.077e-02           1.905e-02             177.956           1.721e-03              15.413           1.201e+01     
-174.000         -90.000            1.651e-02           1.470e-02             181.437           1.810e-03               9.046           2.413e+01     
-173.000         -90.000            1.015e-02           8.273e-03             188.877           1.879e-03               2.416           2.284e+01     
-172.000         -90.000            4.915e-03           3.008e-03             209.695           1.906e-03             355.559           3.359e+00     
-171.000         -90.000            3.564e-03           1.689e-03             270.685           1.875e-03             348.403           1.249e+00     
-170.000         -90.000            7.105e-03           5.328e-03             312.166           1.777e-03             340.790           4.602e+00     
-169.000         -90.000            1.429e-02           1.267e-02             325.174           1.619e-03             332.497           2.472e+01     
-168.000         -90.000            2.217e-02           2.076e-02             331.013           1.417e-03             323.243           3.021e+01     
-167.000         -90.000            2.741e-02           2.621e-02             334.744           1.195e-03             312.712           1.298e+01     
-166.000         -90.000            2.777e-02           2.679e-02             338.105           9.812e-04             300.573           8.778e+00     
-165.000         -90.000            2.313e-02           2.233e-02             342.308           7.952e-04             286.557           6.485e+00     
-164.000         -90.000            1.549e-02           1.484e-02             349.188           6.494e-04             270.557           4.885e+00     
-163.000         -90.000            8.111e-03           7.564e-03               3.332           5.467e-04             252.735           4.012e+00     
