Theta [deg.]  Phi   [deg.]  Abs(Dir.)[      ]   Abs(Theta)[      ]  Phase(Theta)[deg.]  Abs(Phi  )[      ]  Phase(Phi  )[deg.]  Ax.Ratio[      ]    
------------------------------------------------------------------------------------------------------------------------------------------------------
-180.000         -90.000            1.152e-03           1.434e-07             333.952           1.152e-03              85.929           9.664e+01     
-179.000         -90.000            3.337e-03           2.170e-03             330.778           1.167e-03              84.923           1.715e+00     
-178.000         -90.000            8.707e-03           7.497e-03             331.028           1.210e-03              81.993           2.729e+00     
-177.000         -90.000            1.452e-02           1.324e-02             331.545           1.284e-03              77.452           3.365e+00     
-176.000         -90.000            1.783e-02           1.644e-02             332.475           1.388e-03              71.725           3.495e+00     
-175.000         -90.000            1.699e-02           1.547e-02             334.158           1.516e-03              65.230           3.196e+00     
-174.000         -90.000            1.253e-02           1.087e-02             337.472           1.654e-03              58.283           2.609e+00     
-173.000         -90.000            6.872e-03           5.089e-03             345.404           1.783e-03              51.049           2.006e+00     
-172.000         -90.000            3.100e-03           1.221e-03              15.022           1.879e-03              43.558           4.037e+00     
-171.000         -90.000            3.366e-03           1.444e-03              97.622           1.922e-03              35.732           1.704e+00     
-170.000         -90.000            7.799e-03           5.904e-03             123.655           1.895e-03              27.414           1.785e+00     
-169.000         -90.000            1.443e-02           1.263e-02             131.546           1.798e-03              18.386           2.955e+00     
-168.000         -90.000            2.017e-02           1.853e-02             135.788           1.642e-03               8.386           4.375e+00     
-167.000         -90.000            2.234e-02           2.090e-02             139.337           1.448e-03             357.115           6.476e+00     
-166.000         -90.000            2.001e-02           1.876e-02             143.649           1.247e-03             344.267           1.166e+01     
-165.000         -90.000            1.437e-02           1.331e-02             150.562           1.065e-03             329.611           2.299e+02     
-164.000         -90.000            8.216e-03           7.292e-03             164.299           9.233e-04             313.124           5.948e+00     
-163.000         -90.000            4.494e-03           3.661e-03             195.195           8.322e-04             295.148           2.148e+00     
