Theta [deg.]  Phi   [deg.]  Abs(Dir.)[      ]   Abs(Theta)[      ]  Phase(Theta)[deg.]  Abs(Phi  )[      ]  Phase(Phi  )[deg.]  Ax.Ratio[      ]    
------------------------------------------------------------------------------------------------------------------------------------------------------
-180.000         -90.000            9.582e-04           1.601e-07             250.232           9.580e-04             344.392           7.756e+01     
-179.000         -90.000            3.004e-03           2.031e-03             266.154           9.723e-04             343.216           1.546e+00     
-178.000         -90.000            7.993e-03           6.978e-03             266.460           1.015e-03             339.778           2.775e+00     
-177.000         -90.000            1.329e-02           1.220e-02             266.953           1.091e-03             334.487           3.669e+00     
-176.000         -90.000            1.611e-02           1.491e-02             267.812           1.204e-03             327.908           4.145e+00     
-175.000         -90.000            1.501e-02           1.366e-02             269.381           1.351e-03             320.594           4.247e+00     
-174.000         -90.000            1.068e-02           9.154e-03             272.562           1.523e-03             312.958           4.173e+00     
-173.000         -90.000            5.547e-03           3.848e-03             280.720           1.699e-03             305.194           5.038e+00     
-172.000         -90.000            2.550e-03           6.986e-04             318.258           1.852e-03             297.322           6.112e+00     
-171.000         -90.000            3.548e-03           1.594e-03              46.126           1.954e-03             289.229           1.647e+00     
-170.000         -90.000            8.347e-03           6.363e-03              64.796           1.985e-03             280.713           3.737e+00     
-169.000         -90.000            1.478e-02           1.285e-02              70.875           1.935e-03             271.509           8.294e+00     
-168.000         -90.000            1.983e-02           1.801e-02              74.513           1.813e-03             261.311           2.928e+01     
-167.000         -90.000            2.111e-02           1.947e-02              77.955           1.644e-03             249.788           2.623e+01     
-166.000         -90.000            1.813e-02           1.667e-02              82.589           1.463e-03             236.654           8.275e+00     
-165.000         -90.000            1.247e-02           1.116e-02              90.550           1.304e-03             221.787           4.102e+00     
-164.000         -90.000            6.969e-03           5.777e-03             107.228           1.192e-03             205.435           2.236e+00     
-163.000         -90.000            4.328e-03           3.189e-03             143.865           1.140e-03             188.266           2.900e+00     
