Theta [deg.]  Phi   [deg.]  Abs(Dir.)[      ]   Abs(Theta)[      ]  Phase(Theta)[deg.]  Abs(Phi  )[      ]  Phase(Phi  )[deg.]  Ax.Ratio[      ]    
------------------------------------------------------------------------------------------------------------------------------------------------------
-180.000         -90.000            1.279e-03           1.228e-07              56.710           1.279e-03             187.740           1.353e+02     
-179.000         -90.000            3.571e-03           2.276e-03              37.251           1.295e-03             186.814           3.846e+00     
-178.000         -90.000            9.250e-03           7.910e-03              37.474           1.340e-03             184.131           4.968e+00     
-177.000         -90.000            1.550e-02           1.409e-02              38.028           1.415e-03             179.976           5.450e+00     
-176.000         -90.000            1.924e-02           1.773e-02              39.038           1.516e-03             174.724           5.119e+00     
-175.000         -90.000            1.868e-02           1.705e-02              40.849           1.635e-03             168.740           4.249e+00     
-174.000         -90.000            1.419e-02           1.243e-02              44.335           1.757e-03             162.298           3.117e+00     
-173.000         -90.000            8.156e-03           6.296e-03              52.276           1.860e-03             155.534           1.931e+00     
-172.000         -90.000            3.769e-03           1.846e-03              78.072           1.923e-03             148.466           1.419e+00     
-171.000         -90.000            3.443e-03           1.517e-03             151.840           1.926e-03             141.013           1.063e+01     
-170.000         -90.000            7.613e-03           5.753e-03             184.164           1.861e-03             133.027           2.605e+00     
-169.000         -90.000            1.451e-02           1.278e-02             193.934           1.729e-03             124.305           2.954e+00     
-168.000         -90.000            2.100e-02           1.946e-02             198.792           1.547e-03             114.603           3.568e+00     
-167.000         -90.000            2.414e-02           2.280e-02             202.438           1.337e-03             103.654           4.184e+00     
-166.000         -90.000            2.250e-02           2.138e-02             206.419           1.126e-03              91.178           4.866e+00     
-165.000         -90.000            1.693e-02           1.600e-02             212.313           9.346e-04              76.930           6.070e+00     
-164.000         -90.000            1.007e-02           9.288e-03             223.368           7.795e-04              60.781           1.242e+01     
-163.000         -90.000            5.093e-03           4.425e-03             248.255           6.682e-04              42.808           6.745e+00     
