Theta [deg.]  Phi   [deg.]  Abs(Dir.)[      ]   Abs(Theta)[      ]  Phase(Theta)[deg.]  Abs(Phi  )[      ]  Phase(Phi  )[deg.]  Ax.Ratio[      ]    
------------------------------------------------------------------------------------------------------------------------------------------------------
-180.000         -90.000            3.053e-04           3.518e-07             275.567           3.049e-04             187.388           2.946e+01     
-179.000         -90.000            2.875e-03           2.561e-03             316.773           3.136e-04             186.468           3.954e+00     
-178.000         -90.000            9.407e-03           9.068e-03             317.263           3.392e-04             183.776           7.256e+00     
-177.000         -90.000            1.713e-02           1.675e-02             317.841           3.820e-04             179.748           1.004e+01     
-176.000         -90.000            2.279e-02           2.235e-02             318.729           4.408e-04             174.885           1.222e+01     
-175.000         -90.000            2.402e-02           2.351e-02             320.183           5.118e-04             169.567           1.404e+01     
-174.000         -90.000            2.041e-02           1.982e-02             322.715           5.878e-04             163.987           1.642e+01     
-173.000         -90.000            1.359e-02           1.293e-02             327.607           6.587e-04             158.163           2.538e+01     
-172.000         -90.000            6.639e-03           5.925e-03             339.097           7.139e-04             151.996           2.607e+01     
-171.000         -90.000            2.682e-03           1.938e-03              15.417           7.447e-04             145.312           2.512e+00     
-170.000         -90.000            3.612e-03           2.865e-03              78.366           7.471e-04             137.894           2.458e+00     
-169.000         -90.000            9.263e-03           8.540e-03             102.398           7.231e-04             129.497           8.059e+00     
-168.000         -90.000            1.748e-02           1.680e-02             111.099           6.803e-04             119.892           3.380e+01     
-167.000         -90.000            2.502e-02           2.439e-02             115.636           6.302e-04             108.909           5.446e+01     
-166.000         -90.000            2.889e-02           2.830e-02             118.899           5.846e-04              96.547           1.862e+01     
-165.000         -90.000            2.756e-02           2.701e-02             122.166           5.527e-04              83.068           1.122e+01     
-164.000         -90.000            2.165e-02           2.111e-02             126.613           5.388e-04              68.990           7.466e+00     
-163.000         -90.000            1.358e-02           1.304e-02             134.402           5.415e-04              54.931           4.998e+00     
