Theta [deg.]  Phi   [deg.]  Abs(Dir.)[      ]   Abs(Theta)[      ]  Phase(Theta)[deg.]  Abs(Phi  )[      ]  Phase(Phi  )[deg.]  Ax.Ratio[      ]    
------------------------------------------------------------------------------------------------------------------------------------------------------
-180.000         -90.000            1.438e-03           2.245e-08             155.516           1.438e-03              37.089           2.878e+02     
-179.000         -90.000            4.877e-03           3.452e-03             148.571           1.425e-03              35.976           1.837e+00     
-178.000         -90.000            1.426e-02           1.286e-02             148.806           1.393e-03              32.639           3.464e+00     
-177.000         -90.000            2.712e-02           2.576e-02             149.241           1.356e-03              27.125           5.227e+00     
-176.000         -90.000            4.011e-02           3.878e-02             149.926           1.334e-03              19.612           7.175e+00     
-175.000         -90.000            4.988e-02           4.854e-02             150.951           1.349e-03              10.498           9.579e+00     
-174.000         -90.000            5.398e-02           5.257e-02             152.471           1.416e-03               0.412           1.328e+01     
-173.000         -90.000            5.151e-02           4.997e-02             154.761           1.542e-03             350.054           2.220e+01     
-172.000         -90.000            4.335e-02           4.163e-02             158.335           1.724e-03             339.964           1.800e+02     
-171.000         -90.000            3.194e-02           2.999e-02             164.271           1.944e-03             330.394           1.738e+01     
-170.000         -90.000            2.059e-02           1.841e-02             175.022           2.180e-03             321.333           5.684e+00     
-169.000         -90.000            1.265e-02           1.025e-02             196.104           2.407e-03             312.609           2.437e+00     
-168.000         -90.000            1.058e-02           7.981e-03             231.665           2.604e-03             303.984           1.915e+00     
-167.000         -90.000            1.532e-02           1.257e-02             263.741           2.758e-03             295.211           4.777e+00     
-166.000         -90.000            2.604e-02           2.317e-02             281.304           2.870e-03             286.069           3.841e+01     
-165.000         -90.000            4.034e-02           3.739e-02             290.763           2.955e-03             276.396           1.540e+01     
-164.000         -90.000            5.491e-02           5.187e-02             296.619           3.037e-03             266.124           8.503e+00     
-163.000         -90.000            6.632e-02           6.317e-02             300.909           3.148e-03             255.318           6.428e+00     
