Theta [deg.]  Phi   [deg.]  Abs(Dir.)[      ]   Abs(Theta)[      ]  Phase(Theta)[deg.]  Abs(Phi  )[      ]  Phase(Phi  )[deg.]  Ax.Ratio[      ]    
------------------------------------------------------------------------------------------------------------------------------------------------------
-180.000         -90.000            3.106e-04           4.577e-07             116.458           3.102e-04             325.620           5.348e+01     
-179.000         -90.000            2.709e-03           2.386e-03             192.061           3.236e-04             325.232           3.976e+00     
-178.000         -90.000            8.804e-03           8.439e-03             192.758           3.653e-04             324.023           6.518e+00     
-177.000         -90.000            1.587e-02           1.544e-02             193.468           4.355e-04             322.099           7.707e+00     
-176.000         -90.000            2.079e-02           2.026e-02             194.515           5.332e-04             319.560           7.595e+00     
-175.000         -90.000            2.143e-02           2.077e-02             196.213           6.537e-04             316.455           6.578e+00     
-174.000         -90.000            1.763e-02           1.684e-02             199.196           7.880e-04             312.781           5.083e+00     
-173.000         -90.000            1.125e-02           1.033e-02             205.124           9.233e-04             308.485           3.456e+00     
-172.000         -90.000            5.344e-03           4.299e-03             219.883           1.046e-03             303.498           2.048e+00     
-171.000         -90.000            2.720e-03           1.577e-03             266.851           1.143e-03             297.743           3.674e+00     
-170.000         -90.000            4.716e-03           3.509e-03             322.335           1.208e-03             291.144           4.185e+00     
-169.000         -90.000            1.059e-02           9.351e-03             340.862           1.238e-03             283.649           3.409e+00     
-168.000         -90.000            1.785e-02           1.661e-02             348.347           1.238e-03             275.244           3.854e+00     
-167.000         -90.000            2.340e-02           2.218e-02             352.725           1.216e-03             265.971           4.280e+00     
-166.000         -90.000            2.487e-02           2.369e-02             356.337           1.177e-03             255.928           4.569e+00     
-165.000         -90.000            2.169e-02           2.056e-02               0.513           1.128e-03             245.250           4.770e+00     
-164.000         -90.000            1.530e-02           1.423e-02               6.964           1.070e-03             234.070           5.159e+00     
-163.000         -90.000            8.531e-03           7.529e-03              19.719           1.002e-03             222.458           7.908e+00     
