Theta [deg.]  Phi   [deg.]  Abs(Dir.)[      ]   Abs(Theta)[      ]  Phase(Theta)[deg.]  Abs(Phi  )[      ]  Phase(Phi  )[deg.]  Ax.Ratio[      ]    
------------------------------------------------------------------------------------------------------------------------------------------------------
-180.000         -90.000            1.349e-04           1.793e-07              76.782           1.347e-04             173.901           2.762e+01     
-179.000         -90.000            2.603e-03           2.448e-03             255.042           1.549e-04             174.691           4.041e+00     
-178.000         -90.000            8.789e-03           8.567e-03             255.230           2.217e-04             176.350           6.341e+00     
-177.000         -90.000            1.545e-02           1.510e-02             255.600           3.512e-04             177.698           6.713e+00     
-176.000         -90.000            1.912e-02           1.856e-02             256.282           5.593e-04             178.151           5.895e+00     
-175.000         -90.000            1.797e-02           1.712e-02             257.565           8.503e-04             177.610           4.564e+00     
-174.000         -90.000            1.276e-02           1.155e-02             260.217           1.209e-03             176.129           3.112e+00     
-173.000         -90.000            6.479e-03           4.883e-03             267.109           1.596e-03             173.729           1.755e+00     
-172.000         -90.000            2.753e-03           7.942e-04             300.489           1.959e-03             170.384           2.483e+00     
-171.000         -90.000            3.926e-03           1.683e-03              36.816           2.243e-03             165.994           2.139e+00     
-170.000         -90.000            9.812e-03           7.404e-03              54.991           2.408e-03             160.390           1.878e+00     
-169.000         -90.000            1.776e-02           1.532e-02              60.411           2.445e-03             153.338           2.507e+00     
-168.000         -90.000            2.400e-02           2.162e-02              63.473           2.378e-03             144.578           3.061e+00     
-167.000         -90.000            2.555e-02           2.329e-02              66.277           2.260e-03             133.919           3.524e+00     
-166.000         -90.000            2.176e-02           1.960e-02              70.076           2.157e-03             121.422           4.037e+00     
-165.000         -90.000            1.462e-02           1.250e-02              76.911           2.122e-03             107.607           5.376e+00     
-164.000         -90.000            7.798e-03           5.619e-03              92.858           2.180e-03              93.425           2.252e+02     
-163.000         -90.000            4.787e-03           2.471e-03             136.862           2.316e-03              79.872           1.844e+00     
