Theta [deg.]  Phi   [deg.]  Abs(Dir.)[      ]   Abs(Theta)[      ]  Phase(Theta)[deg.]  Abs(Phi  )[      ]  Phase(Phi  )[deg.]  Ax.Ratio[      ]    
------------------------------------------------------------------------------------------------------------------------------------------------------
-180.000         -90.000            5.538e-04           2.186e-07              74.847           5.535e-04              44.891           1.008e+02     
-179.000         -90.000            3.271e-03           2.717e-03              88.168           5.545e-04              44.018           3.544e+00     
-178.000         -90.000            1.026e-02           9.700e-03              88.444           5.565e-04              41.454           5.866e+00     
-177.000         -90.000            1.874e-02           1.818e-02              88.874           5.612e-04              37.384           7.363e+00     
-176.000         -90.000            2.539e-02           2.482e-02              89.579           5.699e-04              32.097           7.879e+00     
-175.000         -90.000            2.759e-02           2.701e-02              90.745           5.826e-04              25.944           7.554e+00     
-174.000         -90.000            2.454e-02           2.394e-02              92.751           5.972e-04              19.269           6.617e+00     
-173.000         -90.000            1.753e-02           1.692e-02              96.478           6.093e-04              12.334           5.300e+00     
-172.000         -90.000            9.457e-03           8.845e-03             104.558           6.123e-04               5.286           3.858e+00     
-171.000         -90.000            3.653e-03           3.053e-03             127.672           6.001e-04             358.126           3.186e+00     
-170.000         -90.000            2.586e-03           2.018e-03             190.137           5.681e-04             350.727           7.128e+00     
-169.000         -90.000            6.882e-03           6.367e-03             227.499           5.151e-04             342.835           3.952e+00     
-168.000         -90.000            1.508e-02           1.463e-02             239.418           4.447e-04             334.042           5.756e+00     
-167.000         -90.000            2.419e-02           2.382e-02             244.754           3.650e-04             323.743           8.235e+00     
-166.000         -90.000            3.084e-02           3.056e-02             248.002           2.872e-04             311.045           1.159e+01     
-165.000         -90.000            3.260e-02           3.237e-02             250.676           2.242e-04             294.874           1.730e+01     
-164.000         -90.000            2.883e-02           2.864e-02             253.698           1.874e-04             274.695           3.470e+01     
-163.000         -90.000            2.099e-02           2.081e-02             258.216           1.849e-04             252.141           1.011e+02     
