Theta [deg.]  Phi   [deg.]  Abs(Dir.)[      ]   Abs(Theta)[      ]  Phase(Theta)[deg.]  Abs(Phi  )[      ]  Phase(Phi  )[deg.]  Ax.Ratio[      ]    
------------------------------------------------------------------------------------------------------------------------------------------------------
-180.000         -90.000            2.702e-04           3.821e-07             235.913           2.698e-04              19.995           4.534e+01     
-179.000         -90.000            2.676e-03           2.385e-03              12.614           2.909e-04              19.652           2.618e+01     
-178.000         -90.000            8.809e-03           8.452e-03              13.075           3.576e-04              18.740           5.131e+01     
-177.000         -90.000            1.570e-02           1.523e-02              13.571           4.767e-04              17.352           8.836e+01     
-176.000         -90.000            2.006e-02           1.940e-02              14.336           6.543e-04              15.547           2.665e+02     
-175.000         -90.000            1.986e-02           1.897e-02              15.643           8.898e-04              13.326           1.196e+02     
-174.000         -90.000            1.536e-02           1.419e-02              18.090           1.171e-03              10.657           2.909e+01     
-173.000         -90.000            8.928e-03           7.453e-03              23.506           1.475e-03               7.470           9.645e+00     
-172.000         -90.000            3.879e-03           2.113e-03              40.839           1.766e-03               3.686           2.991e+00     
-171.000         -90.000            2.812e-03           8.046e-04             120.439           2.007e-03             359.204           2.115e+00     
-170.000         -90.000            6.354e-03           4.186e-03             163.766           2.168e-03             353.899           1.190e+01     
-169.000         -90.000            1.287e-02           1.064e-02             173.758           2.232e-03             347.622           2.467e+01     
-168.000         -90.000            1.928e-02           1.708e-02             178.311           2.201e-03             340.201           1.002e+01     
-167.000         -90.000            2.257e-02           2.048e-02             181.669           2.096e-03             331.464           6.699e+00     
-166.000         -90.000            2.125e-02           1.930e-02             185.403           1.949e-03             321.280           4.767e+00     
-165.000         -90.000            1.607e-02           1.427e-02             191.072           1.798e-03             309.628           3.309e+00     
-164.000         -90.000            9.597e-03           7.924e-03             202.159           1.674e-03             296.708           2.186e+00     
-163.000         -90.000            5.023e-03           3.430e-03             229.256           1.592e-03             282.958           2.215e+00     
