Theta [deg.]  Phi   [deg.]  Abs(Dir.)[      ]   Abs(Theta)[      ]  Phase(Theta)[deg.]  Abs(Phi  )[      ]  Phase(Phi  )[deg.]  Ax.Ratio[      ]    
------------------------------------------------------------------------------------------------------------------------------------------------------
-180.000         -90.000            7.896e-05           1.676e-08             300.018           7.894e-05             321.126           1.906e+02     
-179.000         -90.000            2.680e-03           2.590e-03             139.125           9.029e-05             325.025           5.389e+01     
-178.000         -90.000            9.043e-03           8.911e-03             139.357           1.326e-04             333.399           3.426e+01     
-177.000         -90.000            1.560e-02           1.537e-02             139.870           2.256e-04             341.025           2.317e+01     
-176.000         -90.000            1.870e-02           1.831e-02             140.838           3.897e-04             345.638           1.663e+01     
-175.000         -90.000            1.670e-02           1.607e-02             142.707           6.327e-04             347.373           1.247e+01     
-174.000         -90.000            1.091e-02           9.973e-03             146.759           9.415e-04             346.852           1.027e+01     
-173.000         -90.000            4.874e-03           3.593e-03             158.425           1.281e-03             344.501           2.142e+01     
-172.000         -90.000            2.356e-03           7.533e-04             217.853           1.603e-03             340.521           2.062e+00     
-171.000         -90.000            5.233e-03           3.369e-03             283.806           1.863e-03             334.930           2.235e+00     
-170.000         -90.000            1.238e-02           1.034e-02             296.940           2.037e-03             327.634           5.087e+00     
-169.000         -90.000            2.026e-02           1.813e-02             301.850           2.131e-03             318.503           1.128e+01     
-168.000         -90.000            2.482e-02           2.264e-02             304.924           2.182e-03             307.504           7.843e+01     
-167.000         -90.000            2.375e-02           2.151e-02             308.022           2.243e-03             294.883           1.498e+01     
-166.000         -90.000            1.773e-02           1.536e-02             312.776           2.366e-03             281.283           5.445e+00     
-165.000         -90.000            1.014e-02           7.565e-03             323.084           2.576e-03             267.622           2.366e+00     
-164.000         -90.000            5.286e-03           2.430e-03             355.385           2.856e-03             254.713           1.227e+00     
-163.000         -90.000            6.100e-03           2.951e-03              61.478           3.149e-03             242.970           7.684e+01     
