Theta [deg.]  Phi   [deg.]  Abs(Dir.)[      ]   Abs(Theta)[      ]  Phase(Theta)[deg.]  Abs(Phi  )[      ]  Phase(Phi  )[deg.]  Ax.Ratio[      ]    
------------------------------------------------------------------------------------------------------------------------------------------------------
-180.000         -90.000            9.068e-05           1.808e-06             307.680           8.887e-05             239.738           7.587e+00     
-179.000         -90.000            3.678e-03           3.573e-03             149.326           1.048e-04             239.765           5.839e+00     
-178.000         -90.000            1.241e-02           1.225e-02             149.496           1.563e-04             239.359           8.853e+00     
-177.000         -90.000            2.068e-02           2.044e-02             150.248           2.476e-04             238.300           9.091e+00     
-176.000         -90.000            2.326e-02           2.289e-02             151.780           3.691e-04             236.444           7.910e+00     
-175.000         -90.000            1.863e-02           1.814e-02             154.875           4.900e-04             233.601           6.210e+00     
-174.000         -90.000            9.989e-03           9.423e-03             162.165           5.659e-04             229.421           4.467e+00     
-173.000         -90.000            3.108e-03           2.546e-03             187.453           5.619e-04             223.236           4.206e+00     
-172.000         -90.000            2.561e-03           2.083e-03             267.530           4.779e-04             213.756           2.828e+00     
-171.000         -90.000            8.787e-03           8.431e-03             298.676           3.563e-04             198.582           4.947e+00     
-170.000         -90.000            1.784e-02           1.757e-02             307.725           2.655e-04             174.567           1.123e+01     
-169.000         -90.000            2.397e-02           2.371e-02             312.569           2.631e-04             143.753           4.947e+01     
-168.000         -90.000            2.333e-02           2.297e-02             316.944           3.625e-04             116.690           2.331e+01     
-167.000         -90.000            1.644e-02           1.592e-02             323.310           5.230e-04              97.219           7.782e+00     
-166.000         -90.000            7.853e-03           7.180e-03             337.392           6.728e-04              82.113           3.400e+00     
-165.000         -90.000            3.249e-03           2.496e-03              22.231           7.526e-04              68.114           2.964e+00     
-164.000         -90.000            5.923e-03           5.171e-03              81.752           7.519e-04              52.916           6.063e+00     
-163.000         -90.000            1.475e-02           1.403e-02             102.075           7.143e-04              35.052           4.853e+00     
