Theta [deg.]  Phi   [deg.]  Abs(Dir.)[      ]   Abs(Theta)[      ]  Phase(Theta)[deg.]  Abs(Phi  )[      ]  Phase(Phi  )[deg.]  Ax.Ratio[      ]    
------------------------------------------------------------------------------------------------------------------------------------------------------
-180.000         -90.000            1.522e-03           1.687e-08              92.706           1.522e-03             303.162           3.162e+02     
-179.000         -90.000            5.150e-03           3.638e-03              81.862           1.511e-03             302.210           3.066e+00     
-178.000         -90.000            1.503e-02           1.355e-02              82.098           1.482e-03             299.368           5.352e+00     
-177.000         -90.000            2.852e-02           2.708e-02              82.541           1.446e-03             294.688           8.449e+00     
-176.000         -90.000            4.204e-02           4.062e-02              83.239           1.416e-03             288.309           1.301e+01     
-175.000         -90.000            5.204e-02           5.063e-02              84.283           1.407e-03             280.501           2.203e+01     
-174.000         -90.000            5.596e-02           5.453e-02              85.834           1.431e-03             271.672           6.227e+01     
-173.000         -90.000            5.297e-02           5.148e-02              88.174           1.490e-03             262.297           5.906e+01     
-172.000         -90.000            4.409e-02           4.251e-02              91.833           1.581e-03             252.792           1.643e+01     
-171.000         -90.000            3.199e-02           3.030e-02              97.930           1.691e-03             243.410           7.757e+00     
-170.000         -90.000            2.018e-02           1.837e-02             109.017           1.805e-03             234.214           4.040e+00     
-169.000         -90.000            1.208e-02           1.018e-02             130.775           1.906e-03             225.117           2.321e+00     
-168.000         -90.000            1.010e-02           8.117e-03             166.791           1.979e-03             215.937           2.997e+00     
-167.000         -90.000            1.496e-02           1.294e-02             198.257           2.020e-03             206.448           2.049e+01     
-166.000         -90.000            2.557e-02           2.354e-02             215.356           2.034e-03             196.426           1.130e+01     
-165.000         -90.000            3.928e-02           3.725e-02             224.647           2.035e-03             185.694           7.035e+00     
-164.000         -90.000            5.265e-02           5.061e-02             230.522           2.046e-03             174.186           6.051e+00     
-163.000         -90.000            6.235e-02           6.025e-02             234.931           2.095e-03             162.010           5.628e+00     
