Theta [deg.]  Phi   [deg.]  Abs(Dir.)[      ]   Abs(Theta)[      ]  Phase(Theta)[deg.]  Abs(Phi  )[      ]  Phase(Phi  )[deg.]  Ax.Ratio[      ]    
------------------------------------------------------------------------------------------------------------------------------------------------------
-180.000         -90.000            1.476e-03           2.458e-08             261.347           1.476e-03              13.357           2.643e+02     
-179.000         -90.000            4.767e-03           3.299e-03             229.051           1.468e-03              12.755           3.362e+00     
-178.000         -90.000            1.364e-02           1.220e-02             229.217           1.446e-03              10.970           5.049e+00     
-177.000         -90.000            2.549e-02           2.407e-02             229.583           1.413e-03               8.031           6.432e+00     
-176.000         -90.000            3.683e-02           3.546e-02             230.182           1.373e-03               3.997           7.176e+00     
-175.000         -90.000            4.439e-02           4.306e-02             231.109           1.331e-03             358.967           7.291e+00     
-174.000         -90.000            4.604e-02           4.475e-02             232.527           1.289e-03             353.051           6.891e+00     
-173.000         -90.000            4.143e-02           4.018e-02             234.753           1.251e-03             346.408           6.125e+00     
-172.000         -90.000            3.206e-02           3.085e-02             238.427           1.215e-03             339.200           5.137e+00     
-171.000         -90.000            2.083e-02           1.965e-02             245.060           1.177e-03             331.569           4.094e+00     
-170.000         -90.000            1.113e-02           9.999e-03             258.768           1.135e-03             323.609           3.353e+00     
-169.000         -90.000            5.860e-03           4.778e-03             290.355           1.082e-03             315.346           5.933e+00     
-168.000         -90.000            6.544e-03           5.530e-03             336.448           1.013e-03             306.720           5.389e+00     
-167.000         -90.000            1.294e-02           1.202e-02               2.540           9.287e-04             297.571           4.028e+00     
-166.000         -90.000            2.315e-02           2.232e-02              14.265           8.296e-04             287.625           5.196e+00     
-165.000         -90.000            3.417e-02           3.345e-02              20.660           7.230e-04             276.473           7.025e+00     
-164.000         -90.000            4.284e-02           4.222e-02              24.995           6.202e-04             263.583           9.707e+00     
-163.000         -90.000            4.676e-02           4.622e-02              28.656           5.363e-04             248.412           1.462e+01     
