Theta [deg.]  Phi   [deg.]  Abs(Dir.)[      ]   Abs(Theta)[      ]  Phase(Theta)[deg.]  Abs(Phi  )[      ]  Phase(Phi  )[deg.]  Ax.Ratio[      ]    
------------------------------------------------------------------------------------------------------------------------------------------------------
-180.000         -90.000            2.130e-04           2.683e-06             225.948           2.103e-04             169.241           1.063e+01     
-179.000         -90.000            3.950e-03           3.713e-03              91.347           2.363e-04             166.890           4.111e+00     
-178.000         -90.000            1.301e-02           1.269e-02              91.057           3.210e-04             161.285           6.701e+00     
-177.000         -90.000            2.157e-02           2.110e-02              91.426           4.740e-04             155.055           7.480e+00     
-176.000         -90.000            2.422e-02           2.353e-02              92.412           6.860e-04             149.454           7.042e+00     
-175.000         -90.000            1.945e-02           1.854e-02              94.536           9.129e-04             144.472           6.012e+00     
-174.000         -90.000            1.055e-02           9.469e-03              99.682           1.082e-03             139.628           4.930e+00     
-173.000         -90.000            3.313e-03           2.188e-03             118.825           1.125e-03             134.287           7.792e+00     
-172.000         -90.000            2.184e-03           1.169e-03             214.644           1.015e-03             127.608           1.092e+00     
-171.000         -90.000            7.391e-03           6.604e-03             247.174           7.866e-04             118.255           3.912e+00     
-170.000         -90.000            1.496e-02           1.443e-02             255.050           5.312e-04             103.849           1.113e+01     
-169.000         -90.000            1.950e-02           1.915e-02             259.600           3.474e-04              80.937           3.162e+02     
-168.000         -90.000            1.791e-02           1.761e-02             264.532           2.931e-04              50.129           1.388e+01     
-167.000         -90.000            1.145e-02           1.109e-02             273.172           3.552e-04              22.021           5.924e+00     
-166.000         -90.000            4.908e-03           4.446e-03             295.703           4.619e-04               2.026           3.450e+00     
-165.000         -90.000            3.439e-03           2.911e-03             355.204           5.280e-04             346.928           1.922e+01     
-164.000         -90.000            9.122e-03           8.614e-03              34.565           5.076e-04             332.856           4.743e+00     
-163.000         -90.000            1.953e-02           1.911e-02              48.020           4.183e-04             316.517           6.762e+00     
