Theta [deg.]  Phi   [deg.]  Abs(Dir.)[      ]   Abs(Theta)[      ]  Phase(Theta)[deg.]  Abs(Phi  )[      ]  Phase(Phi  )[deg.]  Ax.Ratio[      ]    
------------------------------------------------------------------------------------------------------------------------------------------------------
-180.000         -90.000            2.231e-04           1.652e-09             205.853           2.231e-04             296.692           3.162e+02     
-179.000         -90.000            3.262e-03           3.040e-03             301.073           2.226e-04             295.894           4.391e+01     
-178.000         -90.000            1.135e-02           1.112e-02             301.244           2.215e-04             293.468           5.340e+01     
-177.000         -90.000            2.173e-02           2.151e-02             301.532           2.206e-04             289.554           4.804e+01     
-176.000         -90.000            3.089e-02           3.067e-02             302.006           2.211e-04             284.395           3.919e+01     
-175.000         -90.000            3.577e-02           3.554e-02             302.772           2.237e-04             278.331           3.063e+01     
-174.000         -90.000            3.477e-02           3.454e-02             304.033           2.284e-04             271.743           2.313e+01     
-173.000         -90.000            2.832e-02           2.809e-02             306.197           2.341e-04             264.971           1.670e+01     
-172.000         -90.000            1.872e-02           1.848e-02             310.257           2.386e-04             258.249           1.122e+01     
-171.000         -90.000            9.275e-03           9.036e-03             319.199           2.392e-04             251.659           6.677e+00     
-170.000         -90.000            3.233e-03           3.000e-03             345.268           2.333e-04             245.135           3.652e+00     
-169.000         -90.000            2.628e-03           2.409e-03              48.346           2.192e-04             238.472           2.052e+01     
-168.000         -90.000            7.627e-03           7.430e-03              81.633           1.968e-04             231.317           1.242e+01     
-167.000         -90.000            1.650e-02           1.633e-02              92.632           1.680e-04             223.131           1.302e+01     
-166.000         -90.000            2.622e-02           2.608e-02              97.705           1.368e-04             213.106           1.530e+01     
-165.000         -90.000            3.353e-02           3.342e-02             100.805           1.085e-04             200.146           1.779e+01     
-164.000         -90.000            3.600e-02           3.591e-02             103.307           8.913e-05             183.258           2.039e+01     
-163.000         -90.000            3.287e-02           3.279e-02             106.020           8.411e-05             163.047           2.355e+01     
