Theta [deg.]  Phi   [deg.]  Abs(Dir.)[      ]   Abs(Theta)[      ]  Phase(Theta)[deg.]  Abs(Phi  )[      ]  Phase(Phi  )[deg.]  Ax.Ratio[      ]    
------------------------------------------------------------------------------------------------------------------------------------------------------
-180.000         -90.000            9.911e-05           2.033e-06             228.421           9.708e-05             191.947           1.178e+01     
-179.000         -90.000            4.548e-03           4.443e-03              40.374           1.051e-04             191.755           1.382e+01     
-178.000         -90.000            1.558e-02           1.545e-02              40.879           1.286e-04             191.070           2.219e+01     
-177.000         -90.000            2.661e-02           2.645e-02              41.734           1.667e-04             189.702           2.385e+01     
-176.000         -90.000            3.110e-02           3.088e-02              43.260           2.148e-04             187.452           2.059e+01     
-175.000         -90.000            2.649e-02           2.623e-02              46.145           2.628e-04             184.116           1.500e+01     
-174.000         -90.000            1.577e-02           1.548e-02              52.395           2.969e-04             179.396           9.104e+00     
-173.000         -90.000            5.668e-03           5.363e-03              70.643           3.050e-04             172.808           4.301e+00     
-172.000         -90.000            2.603e-03           2.321e-03             136.608           2.829e-04             163.500           6.961e+00     
-171.000         -90.000            8.869e-03           8.629e-03             182.589           2.400e-04             150.021           1.136e+01     
-170.000         -90.000            2.123e-02           2.103e-02             195.156           1.990e-04             130.412           1.139e+01     
-169.000         -90.000            3.281e-02           3.262e-02             200.866           1.897e-04             104.376           1.320e+01     
-168.000         -90.000            3.713e-02           3.689e-02             205.039           2.394e-04              77.122           1.577e+01     
-167.000         -90.000            3.191e-02           3.155e-02             209.841           3.621e-04              54.727           2.239e+01     
-166.000         -90.000            2.037e-02           1.982e-02             217.984           5.523e-04              37.695           3.162e+02     
-165.000         -90.000            9.404e-03           8.619e-03             237.241           7.859e-04              24.061           6.448e+00     
-164.000         -90.000            5.647e-03           4.620e-03             286.955           1.027e-03              12.183           2.132e+00     
-163.000         -90.000            1.170e-02           1.046e-02             331.046           1.239e-03               1.036           6.342e+00     
