Theta [deg.]  Phi   [deg.]  Abs(Dir.)[      ]   Abs(Theta)[      ]  Phase(Theta)[deg.]  Abs(Phi  )[      ]  Phase(Phi  )[deg.]  Ax.Ratio[      ]    
------------------------------------------------------------------------------------------------------------------------------------------------------
-180.000         -90.000            9.148e-04           9.751e-08             250.863           9.147e-04             304.627           1.201e+02     
-179.000         -90.000            3.554e-03           2.638e-03             246.047           9.168e-04             304.613           2.231e+00     
-178.000         -90.000            1.026e-02           9.341e-03             246.258           9.235e-04             304.609           3.845e+00     
-177.000         -90.000            1.813e-02           1.719e-02             246.687           9.346e-04             304.500           5.149e+00     
-176.000         -90.000            2.374e-02           2.279e-02             247.430           9.493e-04             304.110           5.940e+00     
-175.000         -90.000            2.472e-02           2.376e-02             248.695           9.664e-04             303.236           6.172e+00     
-174.000         -90.000            2.072e-02           1.974e-02             250.939           9.844e-04             301.674           5.902e+00     
-173.000         -90.000            1.357e-02           1.257e-02             255.343           1.002e-03             299.242           5.329e+00     
-172.000         -90.000            6.467e-03           5.449e-03             265.970           1.017e-03             295.813           5.332e+00     
-171.000         -90.000            2.524e-03           1.492e-03             303.249           1.032e-03             291.318           9.737e+00     
-170.000         -90.000            3.440e-03           2.394e-03              12.912           1.046e-03             285.764           1.518e+00     
-169.000         -90.000            8.765e-03           7.703e-03              35.903           1.062e-03             279.234           3.107e+00     
-168.000         -90.000            1.613e-02           1.504e-02              43.997           1.082e-03             271.879           5.196e+00     
-167.000         -90.000            2.231e-02           2.120e-02              48.485           1.106e-03             263.897           7.823e+00     
-166.000         -90.000            2.466e-02           2.353e-02              52.138           1.132e-03             255.493           1.197e+01     
-165.000         -90.000            2.226e-02           2.110e-02              56.358           1.155e-03             246.844           2.473e+01     
-164.000         -90.000            1.628e-02           1.511e-02              62.836           1.169e-03             238.067           4.657e+01     
-163.000         -90.000            9.510e-03           8.341e-03              75.412           1.169e-03             229.217           6.752e+00     
