Theta [deg.]  Phi   [deg.]  Abs(Dir.)[      ]   Abs(Theta)[      ]  Phase(Theta)[deg.]  Abs(Phi  )[      ]  Phase(Phi  )[deg.]  Ax.Ratio[      ]    
------------------------------------------------------------------------------------------------------------------------------------------------------
-180.000         -90.000            1.665e-04           8.478e-10             306.737           1.665e-04             232.633           3.162e+02     
-179.000         -90.000            2.973e-03           2.808e-03             145.580           1.644e-04             232.191           4.141e+00     
-178.000         -90.000            1.056e-02           1.040e-02             145.739           1.581e-04             230.851           8.141e+00     
-177.000         -90.000            2.065e-02           2.050e-02             146.041           1.481e-04             228.554           1.187e+01     
-176.000         -90.000            3.026e-02           3.012e-02             146.531           1.356e-04             225.203           1.521e+01     
-175.000         -90.000            3.655e-02           3.643e-02             147.298           1.217e-04             220.670           1.806e+01     
-174.000         -90.000            3.774e-02           3.763e-02             148.495           1.079e-04             214.810           2.040e+01     
-173.000         -90.000            3.358e-02           3.349e-02             150.414           9.539e-05             207.512           2.233e+01     
-172.000         -90.000            2.543e-02           2.534e-02             153.661           8.528e-05             198.750           2.438e+01     
-171.000         -90.000            1.581e-02           1.573e-02             159.696           7.826e-05             188.684           2.936e+01     
-170.000         -90.000            7.622e-03           7.547e-03             172.774           7.467e-05             177.690           1.185e+02     
-169.000         -90.000            3.280e-03           3.206e-03             205.895           7.439e-05             166.288           1.044e+01     
-168.000         -90.000            3.976e-03           3.899e-03             256.495           7.700e-05             154.967           7.268e+00     
-167.000         -90.000            9.361e-03           9.279e-03             282.146           8.184e-05             144.028           1.603e+01     
-166.000         -90.000            1.769e-02           1.760e-02             292.737           8.817e-05             133.519           3.999e+01     
-165.000         -90.000            2.637e-02           2.627e-02             298.231           9.555e-05             123.369           1.859e+02     
-164.000         -90.000            3.277e-02           3.267e-02             301.796           1.036e-04             113.398           1.219e+02     
-163.000         -90.000            3.501e-02           3.489e-02             304.716           1.126e-04             103.452           4.868e+01     
