Theta [deg.]  Phi   [deg.]  Abs(Dir.)[      ]   Abs(Theta)[      ]  Phase(Theta)[deg.]  Abs(Phi  )[      ]  Phase(Phi  )[deg.]  Ax.Ratio[      ]    
------------------------------------------------------------------------------------------------------------------------------------------------------
-180.000         -90.000            9.918e-04           2.009e-07             172.026           9.916e-04             209.325           1.159e+02     
-179.000         -90.000            3.771e-03           2.775e-03             188.850           9.959e-04             209.293           6.336e+00     
-178.000         -90.000            1.077e-02           9.763e-03             189.131           1.008e-03             209.239           9.885e+00     
-177.000         -90.000            1.885e-02           1.782e-02             189.573           1.029e-03             209.064           1.312e+01     
-176.000         -90.000            2.439e-02           2.333e-02             190.294           1.056e-03             208.616           1.556e+01     
-175.000         -90.000            2.496e-02           2.387e-02             191.527           1.089e-03             207.722           1.749e+01     
-174.000         -90.000            2.037e-02           1.924e-02             193.756           1.125e-03             206.216           2.024e+01     
-173.000         -90.000            1.279e-02           1.162e-02             198.300           1.162e-03             203.947           3.532e+01     
-172.000         -90.000            5.698e-03           4.500e-03             210.153           1.198e-03             200.816           1.506e+01     
-171.000         -90.000            2.343e-03           1.114e-03             258.218           1.229e-03             196.766           1.687e+00     
-170.000         -90.000            4.256e-03           3.000e-03             325.813           1.256e-03             191.788           2.676e+00     
-169.000         -90.000            1.059e-02           9.316e-03             343.265           1.277e-03             185.915           7.849e+00     
-168.000         -90.000            1.854e-02           1.724e-02             349.773           1.291e-03             179.216           2.390e+01     
-167.000         -90.000            2.459e-02           2.329e-02             353.667           1.299e-03             171.782           1.359e+02     
-166.000         -90.000            2.614e-02           2.484e-02             357.137           1.300e-03             163.716           1.977e+01     
-165.000         -90.000            2.262e-02           2.133e-02               1.504           1.293e-03             155.118           9.589e+00     
-164.000         -90.000            1.575e-02           1.447e-02               8.683           1.276e-03             146.074           5.221e+00     
-163.000         -90.000            8.727e-03           7.477e-03              23.471           1.250e-03             136.654           2.741e+00     
