Theta [deg.]  Phi   [deg.]  Abs(Dir.)[      ]   Abs(Theta)[      ]  Phase(Theta)[deg.]  Abs(Phi  )[      ]  Phase(Phi  )[deg.]  Ax.Ratio[      ]    
------------------------------------------------------------------------------------------------------------------------------------------------------
-180.000         -90.000            1.109e-04           1.751e-06              12.041           1.092e-04             267.751           8.156e+00     
-179.000         -90.000            3.666e-03           3.557e-03             148.850           1.090e-04             270.799           6.793e+00     
-178.000         -90.000            1.253e-02           1.242e-02             149.578           1.119e-04             279.265           1.374e+01     
-177.000         -90.000            2.167e-02           2.154e-02             150.294           1.270e-04             290.884           2.058e+01     
-176.000         -90.000            2.592e-02           2.575e-02             151.409           1.623e-04             301.808           2.563e+01     
-175.000         -90.000            2.290e-02           2.268e-02             153.432           2.179e-04             309.195           2.505e+01     
-174.000         -90.000            1.444e-02           1.416e-02             157.704           2.841e-04             312.349           1.676e+01     
-173.000         -90.000            5.533e-03           5.188e-03             169.758           3.447e-04             311.551           6.536e+00     
-172.000         -90.000            1.550e-03           1.165e-03             227.902           3.854e-04             306.990           1.801e+00     
-171.000         -90.000            5.209e-03           4.805e-03             293.020           4.032e-04             298.502           3.915e+01     
-170.000         -90.000            1.501e-02           1.460e-02             306.766           4.123e-04             285.833           1.706e+01     
-169.000         -90.000            2.600e-02           2.556e-02             312.002           4.421e-04             269.447           1.135e+01     
-168.000         -90.000            3.251e-02           3.198e-02             315.345           5.275e-04             251.381           8.693e+00     
-167.000         -90.000            3.119e-02           3.050e-02             318.765           6.953e-04             234.375           6.656e+00     
-166.000         -90.000            2.295e-02           2.200e-02             324.007           9.506e-04             219.901           4.974e+00     
-165.000         -90.000            1.245e-02           1.117e-02             335.132           1.271e-03             207.873           3.893e+00     
-164.000         -90.000            5.651e-03           4.042e-03               7.361           1.609e-03             197.586           1.240e+01     
-163.000         -90.000            6.681e-03           4.775e-03              67.811           1.906e-03             188.323           2.093e+00     
