Theta [deg.]  Phi   [deg.]  Abs(Dir.)[      ]   Abs(Theta)[      ]  Phase(Theta)[deg.]  Abs(Phi  )[      ]  Phase(Phi  )[deg.]  Ax.Ratio[      ]    
------------------------------------------------------------------------------------------------------------------------------------------------------
-180.000         -90.000            2.488e-04           3.230e-09              43.208           2.488e-04              88.684           3.162e+02     
-179.000         -90.000            2.938e-03           2.685e-03             174.017           2.528e-04              88.125           3.269e+00     
-178.000         -90.000            1.001e-02           9.748e-03             174.198           2.653e-04              86.443           6.067e+00     
-177.000         -90.000            1.885e-02           1.857e-02             174.505           2.855e-04              83.844           8.065e+00     
-176.000         -90.000            2.619e-02           2.587e-02             175.022           3.120e-04              80.584           9.134e+00     
-175.000         -90.000            2.933e-02           2.899e-02             175.882           3.421e-04              76.888           9.323e+00     
-174.000         -90.000            2.718e-02           2.681e-02             177.353           3.715e-04              72.900           8.780e+00     
-173.000         -90.000            2.061e-02           2.021e-02             180.017           3.950e-04              68.658           7.701e+00     
-172.000         -90.000            1.214e-02           1.174e-02             185.472           4.073e-04              64.114           6.347e+00     
-171.000         -90.000            5.004e-03           4.600e-03             199.545           4.039e-04              59.123           5.583e+00     
-170.000         -90.000            1.906e-03           1.523e-03             247.985           3.829e-04              53.442           9.838e+00     
-169.000         -90.000            4.056e-03           3.710e-03             305.516           3.460e-04              46.707           3.351e+00     
-168.000         -90.000            1.072e-02           1.042e-02             323.001           2.985e-04              38.386           6.117e+00     
-167.000         -90.000            1.949e-02           1.924e-02             329.592           2.489e-04              27.770           1.039e+01     
-166.000         -90.000            2.722e-02           2.701e-02             333.063           2.075e-04              14.113           1.745e+01     
-165.000         -90.000            3.111e-02           3.093e-02             335.506           1.844e-04             357.293           3.507e+01     
-164.000         -90.000            2.979e-02           2.961e-02             337.883           1.872e-04             338.828           3.162e+02     
-163.000         -90.000            2.378e-02           2.356e-02             341.053           2.191e-04             321.547           3.131e+01     
