Theta [deg.]  Phi   [deg.]  Abs(Dir.)[      ]   Abs(Theta)[      ]  Phase(Theta)[deg.]  Abs(Phi  )[      ]  Phase(Phi  )[deg.]  Ax.Ratio[      ]    
------------------------------------------------------------------------------------------------------------------------------------------------------
-180.000         -90.000            2.295e-04           2.910e-09             128.015           2.295e-04             194.207           3.070e+02     
-179.000         -90.000            3.133e-03           2.902e-03             236.373           2.313e-04             193.432           5.430e+00     
-178.000         -90.000            1.082e-02           1.058e-02             236.549           2.368e-04             191.101           9.484e+00     
-177.000         -90.000            2.055e-02           2.030e-02             236.840           2.463e-04             187.456           1.202e+01     
-176.000         -90.000            2.889e-02           2.863e-02             237.322           2.599e-04             182.847           1.294e+01     
-175.000         -90.000            3.291e-02           3.263e-02             238.115           2.767e-04             177.650           1.251e+01     
-174.000         -90.000            3.125e-02           3.096e-02             239.446           2.948e-04             172.181           1.113e+01     
-173.000         -90.000            2.458e-02           2.427e-02             241.794           3.109e-04             166.635           9.149e+00     
-172.000         -90.000            1.536e-02           1.504e-02             246.396           3.210e-04             161.081           6.868e+00     
-171.000         -90.000            6.921e-03           6.600e-03             257.349           3.212e-04             155.454           4.643e+00     
-170.000         -90.000            2.316e-03           2.008e-03             293.162           3.087e-04             149.575           4.746e+00     
-169.000         -90.000            3.202e-03           2.919e-03             358.275           2.829e-04             143.143           5.955e+00     
-168.000         -90.000            9.283e-03           9.037e-03              22.258           2.460e-04             135.694           6.635e+00     
-167.000         -90.000            1.843e-02           1.823e-02              30.558           2.032e-04             126.533           9.523e+00     
-166.000         -90.000            2.746e-02           2.729e-02              34.645           1.620e-04             114.678           1.318e+01     
-165.000         -90.000            3.323e-02           3.310e-02              37.318           1.305e-04              99.082           1.809e+01     
-164.000         -90.000            3.378e-02           3.366e-02              39.680           1.167e-04              79.760           2.643e+01     
-163.000         -90.000            2.897e-02           2.884e-02              42.521           1.261e-04              59.362           5.242e+01     
