Theta [deg.]  Phi   [deg.]  Abs(Dir.)[      ]   Abs(Theta)[      ]  Phase(Theta)[deg.]  Abs(Phi  )[      ]  Phase(Phi  )[deg.]  Ax.Ratio[      ]    
------------------------------------------------------------------------------------------------------------------------------------------------------
-180.000         -90.000            1.797e-02           3.269e-08             312.655           1.797e-02             358.241           3.162e+02     
-179.000         -90.000            2.150e-02           3.619e-03             301.713           1.788e-02             357.908           2.868e+00     
-178.000         -90.000            3.149e-02           1.385e-02             301.784           1.764e-02             356.912           1.940e+00     
-177.000         -90.000            4.630e-02           2.905e-02             301.917           1.725e-02             355.248           2.103e+00     
-176.000         -90.000            6.352e-02           4.676e-02             302.122           1.676e-02             352.917           2.534e+00     
-175.000         -90.000            8.035e-02           6.415e-02             302.418           1.620e-02             349.922           3.053e+00     
-174.000         -90.000            9.407e-02           7.845e-02             302.834           1.562e-02             346.276           3.633e+00     
-173.000         -90.000            1.025e-01           8.743e-02             303.415           1.506e-02             342.009           4.295e+00     
-172.000         -90.000            1.043e-01           8.971e-02             304.228           1.456e-02             337.171           5.109e+00     
-171.000         -90.000            9.921e-02           8.504e-02             305.379           1.417e-02             331.836           6.255e+00     
-170.000         -90.000            8.817e-02           7.426e-02             307.043           1.390e-02             326.105           8.281e+00     
-169.000         -90.000            7.298e-02           5.921e-02             309.538           1.377e-02             320.095           1.388e+01     
-168.000         -90.000            5.615e-02           4.238e-02             313.480           1.377e-02             313.927           2.977e+02     
-167.000         -90.000            4.038e-02           2.649e-02             320.215           1.389e-02             307.716           9.622e+00     
-166.000         -90.000            2.824e-02           1.413e-02             333.062           1.411e-02             301.566           3.546e+00     
-165.000         -90.000            2.164e-02           7.239e-03             359.686           1.440e-02             295.544           1.800e+00     
-164.000         -90.000            2.160e-02           6.888e-03              40.445           1.471e-02             289.693           1.710e+00     
-163.000         -90.000            2.811e-02           1.309e-02              69.074           1.502e-02             284.030           3.185e+00     
