Theta [deg.]  Phi   [deg.]  Abs(Dir.)[      ]   Abs(Theta)[      ]  Phase(Theta)[deg.]  Abs(Phi  )[      ]  Phase(Phi  )[deg.]  Ax.Ratio[      ]    
------------------------------------------------------------------------------------------------------------------------------------------------------
-180.000         -90.000            1.775e-04           8.288e-09             179.579           1.775e-04             165.796           3.162e+02     
-179.000         -90.000            2.845e-03           2.669e-03               0.472           1.766e-04             165.496           1.598e+01     
-178.000         -90.000            1.016e-02           9.985e-03               0.651           1.739e-04             164.638           2.791e+01     
-177.000         -90.000            2.018e-02           2.001e-02               0.979           1.691e-04             163.196           3.589e+01     
-176.000         -90.000            3.027e-02           3.011e-02               1.498           1.619e-04             161.116           3.934e+01     
-175.000         -90.000            3.780e-02           3.765e-02               2.284           1.522e-04             158.306           3.883e+01     
-174.000         -90.000            4.085e-02           4.071e-02               3.465           1.399e-04             154.619           3.545e+01     
-173.000         -90.000            3.874e-02           3.862e-02               5.269           1.252e-04             149.821           3.035e+01     
-172.000         -90.000            3.216e-02           3.205e-02               8.117           1.090e-04             143.561           2.449e+01     
-171.000         -90.000            2.298e-02           2.289e-02              12.911           9.251e-05             135.302           1.865e+01     
-170.000         -90.000            1.373e-02           1.365e-02              21.775           7.785e-05             124.363           1.357e+01     
-169.000         -90.000            6.910e-03           6.842e-03              40.273           6.753e-05             110.144           1.073e+01     
-168.000         -90.000            4.312e-03           4.248e-03              77.252           6.443e-05              92.880           3.056e+01     
-167.000         -90.000            6.567e-03           6.496e-03             115.280           7.152e-05              74.458           1.467e+01     
-166.000         -90.000            1.299e-02           1.290e-02             134.856           9.137e-05              57.552           1.219e+01     
-165.000         -90.000            2.181e-02           2.168e-02             144.463           1.258e-04              43.619           1.337e+01     
-164.000         -90.000            3.063e-02           3.046e-02             150.053           1.756e-04              32.579           1.486e+01     
-163.000         -90.000            3.712e-02           3.688e-02             153.959           2.400e-04              23.751           1.627e+01     
