Theta [deg.]  Phi   [deg.]  Abs(Dir.)[      ]   Abs(Theta)[      ]  Phase(Theta)[deg.]  Abs(Phi  )[      ]  Phase(Phi  )[deg.]  Ax.Ratio[      ]    
------------------------------------------------------------------------------------------------------------------------------------------------------
-180.000         -90.000            3.609e-04           2.048e-06             156.302           3.589e-04             111.517           1.884e+01     
-179.000         -90.000            5.996e-03           5.626e-03             341.937           3.693e-04             111.294           5.187e+00     
-178.000         -90.000            1.988e-02           1.949e-02             342.321           3.977e-04             110.547           8.981e+00     
-177.000         -90.000            3.363e-02           3.319e-02             343.163           4.383e-04             109.169           1.081e+01     
-176.000         -90.000            3.900e-02           3.852e-02             344.725           4.808e-04             107.018           1.063e+01     
-175.000         -90.000            3.292e-02           3.241e-02             347.697           5.111e-04             103.919           8.904e+00     
-174.000         -90.000            1.936e-02           1.885e-02             354.152           5.149e-04              99.636           6.291e+00     
-173.000         -90.000            6.865e-03           6.382e-03              13.145           4.826e-04              93.806           3.693e+00     
-172.000         -90.000            3.326e-03           2.911e-03              80.649           4.148e-04              85.812           3.360e+01     
-171.000         -90.000            1.122e-02           1.090e-02             125.110           3.247e-04              74.559           7.593e+00     
-170.000         -90.000            2.612e-02           2.588e-02             137.497           2.358e-04              58.145           1.066e+01     
-169.000         -90.000            3.939e-02           3.921e-02             143.397           1.751e-04              34.204           1.585e+01     
-168.000         -90.000            4.340e-02           4.323e-02             147.987           1.655e-04               3.763           2.772e+01     
-167.000         -90.000            3.608e-02           3.586e-02             153.558           2.177e-04             334.710           3.162e+02     
-166.000         -90.000            2.209e-02           2.176e-02             163.301           3.283e-04             312.107           1.589e+01     
-165.000         -90.000            1.000e-02           9.524e-03             186.359           4.810e-04             294.604           4.710e+00     
-164.000         -90.000            7.238e-03           6.585e-03             237.224           6.528e-04             279.885           4.949e+00     
-163.000         -90.000            1.570e-02           1.488e-02             274.797           8.204e-04             266.480           3.103e+01     
