Theta [deg.]  Phi   [deg.]  Abs(Dir.)[      ]   Abs(Theta)[      ]  Phase(Theta)[deg.]  Abs(Phi  )[      ]  Phase(Phi  )[deg.]  Ax.Ratio[      ]    
------------------------------------------------------------------------------------------------------------------------------------------------------
-180.000         -90.000            1.350e-03           2.386e-08              34.217           1.349e-03             112.917           2.425e+02     
-179.000         -90.000            6.403e-03           5.032e-03             265.876           1.371e-03             113.101           5.134e+00     
-178.000         -90.000            1.886e-02           1.743e-02             266.047           1.432e-03             113.532           8.057e+00     
-177.000         -90.000            3.202e-02           3.049e-02             266.474           1.525e-03             113.997           1.006e+01     
-176.000         -90.000            3.880e-02           3.717e-02             267.288           1.632e-03             114.224           1.091e+01     
-175.000         -90.000            3.563e-02           3.389e-02             268.842           1.732e-03             113.946           1.087e+01     
-174.000         -90.000            2.431e-02           2.251e-02             272.102           1.795e-03             112.931           1.066e+01     
-173.000         -90.000            1.113e-02           9.333e-03             280.700           1.796e-03             110.955           1.520e+01     
-172.000         -90.000            3.467e-03           1.752e-03             320.542           1.715e-03             107.773           3.401e+00     
-171.000         -90.000            5.833e-03           4.278e-03              44.399           1.555e-03             103.062           2.191e+00     
-170.000         -90.000            1.744e-02           1.610e-02              62.397           1.336e-03              96.351           6.580e+00     
-169.000         -90.000            3.256e-02           3.147e-02              68.188           1.096e-03              86.989           1.714e+01     
-168.000         -90.000            4.354e-02           4.265e-02              71.461           8.851e-04              74.250           1.456e+02     
-167.000         -90.000            4.477e-02           4.403e-02              74.440           7.451e-04              57.888           2.740e+01     
-166.000         -90.000            3.569e-02           3.499e-02              78.574           7.013e-04              39.157           1.126e+01     
-165.000         -90.000            2.109e-02           2.034e-02              86.524           7.525e-04              20.789           5.739e+00     
-164.000         -90.000            8.776e-03           7.905e-03             107.482           8.708e-04               4.926           3.105e+00     
-163.000         -90.000            5.601e-03           4.591e-03             164.472           1.010e-03             351.919           2.002e+01     
