Theta [deg.]  Phi   [deg.]  Abs(Dir.)[      ]   Abs(Theta)[      ]  Phase(Theta)[deg.]  Abs(Phi  )[      ]  Phase(Phi  )[deg.]  Ax.Ratio[      ]    
------------------------------------------------------------------------------------------------------------------------------------------------------
-180.000         -90.000            8.598e-04           1.367e-08             261.193           8.597e-04              15.486           2.752e+02     
-179.000         -90.000            5.462e-03           4.590e-03              78.325           8.719e-04              15.328           2.693e+00     
-178.000         -90.000            1.704e-02           1.613e-02              78.496           9.056e-04              14.814           4.763e+00     
-177.000         -90.000            2.992e-02           2.897e-02              78.837           9.556e-04              13.913           6.116e+00     
-176.000         -90.000            3.782e-02           3.681e-02              79.457           1.013e-03              12.569           6.584e+00     
-175.000         -90.000            3.692e-02           3.585e-02              80.590           1.064e-03              10.709           6.203e+00     
-174.000         -90.000            2.773e-02           2.663e-02              82.807           1.097e-03               8.237           5.127e+00     
-173.000         -90.000            1.485e-02           1.375e-02              87.890           1.097e-03               5.008           3.573e+00     
-172.000         -90.000            4.715e-03           3.658e-03             105.094           1.056e-03               0.830           1.966e+00     
-171.000         -90.000            2.423e-03           1.449e-03             190.852           9.742e-04             355.418           7.530e+00     
-170.000         -90.000            9.293e-03           8.433e-03             231.123           8.601e-04             348.372           3.604e+00     
-169.000         -90.000            2.223e-02           2.150e-02             239.976           7.324e-04             339.159           5.493e+00     
-168.000         -90.000            3.523e-02           3.461e-02             243.995           6.156e-04             327.208           7.553e+00     
-167.000         -90.000            4.229e-02           4.176e-02             246.984           5.337e-04             312.288           9.757e+00     
-166.000         -90.000            4.026e-02           3.976e-02             250.379           5.047e-04             295.194           1.267e+01     
-165.000         -90.000            3.034e-02           2.981e-02             255.675           5.347e-04             277.922           2.003e+01     
-164.000         -90.000            1.751e-02           1.689e-02             266.174           6.159e-04             262.448           8.353e+01     
-163.000         -90.000            8.149e-03           7.421e-03             291.953           7.283e-04             249.516           4.994e+00     
