Theta [deg.]  Phi   [deg.]  Abs(Dir.)[      ]   Abs(Theta)[      ]  Phase(Theta)[deg.]  Abs(Phi  )[      ]  Phase(Phi  )[deg.]  Ax.Ratio[      ]    
------------------------------------------------------------------------------------------------------------------------------------------------------
-180.000         -90.000            5.168e-04           5.160e-10              99.603           5.168e-04               3.782           3.162e+02     
-179.000         -90.000            3.017e-03           2.502e-03             204.662           5.151e-04               3.710           7.295e+00     
-178.000         -90.000            9.936e-03           9.426e-03             204.820           5.100e-04               3.498           1.238e+01     
-177.000         -90.000            1.966e-02           1.916e-02             205.086           5.015e-04               3.130           1.691e+01     
-176.000         -90.000            2.995e-02           2.946e-02             205.500           4.896e-04               2.580           2.020e+01     
-175.000         -90.000            3.842e-02           3.794e-02             206.118           4.742e-04               1.807           2.195e+01     
-174.000         -90.000            4.315e-02           4.270e-02             207.029           4.555e-04               0.763           2.207e+01     
-173.000         -90.000            4.313e-02           4.270e-02             208.383           4.336e-04             359.387           2.063e+01     
-172.000         -90.000            3.845e-02           3.804e-02             210.445           4.090e-04             357.607           1.792e+01     
-171.000         -90.000            3.030e-02           2.992e-02             213.727           3.824e-04             355.334           1.435e+01     
-170.000         -90.000            2.068e-02           2.032e-02             219.322           3.547e-04             352.474           1.046e+01     
-169.000         -90.000            1.192e-02           1.159e-02             229.883           3.272e-04             348.925           6.853e+00     
-168.000         -90.000            6.126e-03           5.824e-03             252.103           3.013e-04             344.591           4.401e+00     
-167.000         -90.000            4.718e-03           4.440e-03             291.852           2.786e-04             339.404           5.570e+00     
-166.000         -90.000            8.083e-03           7.823e-03             325.182           2.608e-04             333.356           3.978e+01     
-165.000         -90.000            1.551e-02           1.526e-02             341.605           2.494e-04             326.544           3.056e+01     
-164.000         -90.000            2.537e-02           2.513e-02             349.984           2.457e-04             319.195           1.990e+01     
-163.000         -90.000            3.549e-02           3.524e-02             355.028           2.508e-04             311.651           1.732e+01     
