Theta [deg.]  Phi   [deg.]  Abs(Dir.)[      ]   Abs(Theta)[      ]  Phase(Theta)[deg.]  Abs(Phi  )[      ]  Phase(Phi  )[deg.]  Ax.Ratio[      ]    
------------------------------------------------------------------------------------------------------------------------------------------------------
-180.000         -90.000            2.973e-04           3.825e-09              68.521           2.973e-04             241.714           3.162e+02     
-179.000         -90.000            3.319e-03           3.018e-03             331.286           3.014e-04             241.020           3.164e+00     
-178.000         -90.000            1.136e-02           1.105e-02             331.361           3.139e-04             239.001           5.939e+00     
-177.000         -90.000            2.172e-02           2.138e-02             331.556           3.351e-04             235.881           8.029e+00     
-176.000         -90.000            3.090e-02           3.053e-02             331.906           3.651e-04             231.966           9.287e+00     
-175.000         -90.000            3.584e-02           3.544e-02             332.497           4.032e-04             227.564           9.710e+00     
-174.000         -90.000            3.494e-02           3.449e-02             333.497           4.476e-04             222.926           9.391e+00     
-173.000         -90.000            2.857e-02           2.808e-02             335.256           4.949e-04             218.208           8.488e+00     
-172.000         -90.000            1.897e-02           1.843e-02             338.623           5.408e-04             213.484           7.209e+00     
-171.000         -90.000            9.432e-03           8.852e-03             346.223           5.803e-04             208.750           5.990e+00     
-170.000         -90.000            3.217e-03           2.608e-03              10.107           6.087e-04             203.956           1.057e+01     
-169.000         -90.000            2.432e-03           1.810e-03              80.927           6.224e-04             199.019           2.128e+00     
-168.000         -90.000            7.344e-03           6.724e-03             115.800           6.199e-04             193.840           3.381e+00     
-167.000         -90.000            1.630e-02           1.570e-02             125.929           6.018e-04             188.315           5.814e+00     
-166.000         -90.000            2.633e-02           2.576e-02             130.424           5.711e-04             182.336           8.606e+00     
-165.000         -90.000            3.410e-02           3.357e-02             133.157           5.322e-04             175.822           1.182e+01     
-164.000         -90.000            3.708e-02           3.659e-02             135.416           4.905e-04             168.734           1.587e+01     
-163.000         -90.000            3.434e-02           3.389e-02             137.965           4.508e-04             161.114           2.230e+01     
