Theta [deg.]  Phi   [deg.]  Abs(Dir.)[      ]   Abs(Theta)[      ]  Phase(Theta)[deg.]  Abs(Phi  )[      ]  Phase(Phi  )[deg.]  Ax.Ratio[      ]    
------------------------------------------------------------------------------------------------------------------------------------------------------
-180.000         -90.000            2.986e-04           9.593e-10              18.441           2.986e-04             242.474           3.162e+02     
-179.000         -90.000            3.404e-03           3.106e-03             220.704           2.979e-04             241.885           9.691e+00     
-178.000         -90.000            1.184e-02           1.154e-02             220.829           2.958e-04             240.141           1.932e+01     
-177.000         -90.000            2.320e-02           2.291e-02             221.069           2.933e-04             237.299           3.199e+01     
-176.000         -90.000            3.426e-02           3.397e-02             221.464           2.918e-04             233.470           5.230e+01     
-175.000         -90.000            4.191e-02           4.161e-02             222.079           2.926e-04             228.831           1.021e+02     
-174.000         -90.000            4.404e-02           4.375e-02             223.047           2.970e-04             223.611           3.162e+02     
-173.000         -90.000            4.016e-02           3.986e-02             224.595           3.057e-04             218.086           1.015e+02     
-172.000         -90.000            3.148e-02           3.116e-02             227.184           3.185e-04             212.535           3.948e+01     
-171.000         -90.000            2.055e-02           2.021e-02             231.900           3.347e-04             207.183           1.884e+01     
-170.000         -90.000            1.054e-02           1.019e-02             241.809           3.527e-04             202.190           8.603e+00     
-169.000         -90.000            4.294e-03           3.923e-03             267.549           3.706e-04             197.640           3.506e+00     
-168.000         -90.000            3.528e-03           3.142e-03             321.758           3.862e-04             193.553           3.814e+00     
-167.000         -90.000            8.371e-03           7.973e-03             355.378           3.976e-04             189.910           1.868e+01     
-166.000         -90.000            1.735e-02           1.695e-02               8.067           4.031e-04             186.666           2.716e+02     
-165.000         -90.000            2.786e-02           2.746e-02              14.132           4.019e-04             183.764           4.658e+01     
-164.000         -90.000            3.690e-02           3.651e-02              17.834           3.938e-04             181.143           3.386e+01     
-163.000         -90.000            4.195e-02           4.157e-02              20.697           3.792e-04             178.744           2.823e+01     
