Theta [deg.]  Phi   [deg.]  Abs(Dir.)[      ]   Abs(Theta)[      ]  Phase(Theta)[deg.]  Abs(Phi  )[      ]  Phase(Phi  )[deg.]  Ax.Ratio[      ]    
------------------------------------------------------------------------------------------------------------------------------------------------------
-180.000         -90.000            2.004e-03           1.147e-06             250.969           2.003e-03             245.096           3.162e+02     
-179.000         -90.000            8.292e-03           6.288e-03             243.408           2.004e-03             244.437           1.300e+02     
-178.000         -90.000            2.402e-02           2.201e-02             243.537           2.008e-03             242.503           2.003e+02     
-177.000         -90.000            4.215e-02           4.014e-02             243.871           2.014e-03             239.405           6.019e+01     
-176.000         -90.000            5.460e-02           5.258e-02             244.486           2.017e-03             235.304           3.320e+01     
-175.000         -90.000            5.586e-02           5.385e-02             245.578           2.009e-03             230.371           2.042e+01     
-174.000         -90.000            4.548e-02           4.350e-02             247.603           1.982e-03             224.752           1.253e+01     
-173.000         -90.000            2.823e-02           2.630e-02             251.798           1.923e-03             218.534           7.096e+00     
-172.000         -90.000            1.192e-02           1.010e-02             262.929           1.822e-03             211.712           3.258e+00     
-171.000         -90.000            3.966e-03           2.288e-03             310.800           1.677e-03             204.179           1.396e+00     
-170.000         -90.000            8.013e-03           6.519e-03              21.358           1.493e-03             195.716           2.608e+01     
-169.000         -90.000            2.242e-02           2.113e-02              38.313           1.287e-03             186.002           7.917e+00     
-168.000         -90.000            4.097e-02           3.989e-02              44.415           1.081e-03             174.590           8.041e+00     
-167.000         -90.000            5.570e-02           5.479e-02              47.977           9.044e-04             161.106           8.486e+00     
-166.000         -90.000            6.037e-02           5.959e-02              51.104           7.794e-04             145.520           8.771e+00     
-165.000         -90.000            5.319e-02           5.248e-02              55.020           7.182e-04             128.581           8.922e+00     
-164.000         -90.000            3.761e-02           3.689e-02              61.417           7.175e-04             111.783           9.385e+00     
-163.000         -90.000            2.073e-02           1.997e-02              74.370           7.578e-04              96.543           1.405e+01     
