Theta [deg.]  Phi   [deg.]  Abs(Dir.)[      ]   Abs(Theta)[      ]  Phase(Theta)[deg.]  Abs(Phi  )[      ]  Phase(Phi  )[deg.]  Ax.Ratio[      ]    
------------------------------------------------------------------------------------------------------------------------------------------------------
-180.000         -90.000            1.511e-03           4.254e-07             299.730           1.511e-03              12.292           6.247e+01     
-179.000         -90.000            5.406e-03           3.892e-03              78.132           1.514e-03              11.479           1.899e+00     
-178.000         -90.000            1.597e-02           1.444e-02              78.423           1.528e-03               9.121           3.334e+00     
-177.000         -90.000            2.983e-02           2.827e-02              78.664           1.557e-03               5.376           4.471e+00     
-176.000         -90.000            4.259e-02           4.098e-02              78.993           1.606e-03               0.498           5.163e+00     
-175.000         -90.000            5.022e-02           4.854e-02              79.504           1.680e-03             354.816           5.399e+00     
-174.000         -90.000            5.036e-02           4.858e-02              80.338           1.780e-03             348.675           5.227e+00     
-173.000         -90.000            4.307e-02           4.117e-02              81.762           1.899e-03             342.375           4.726e+00     
-172.000         -90.000            3.078e-02           2.875e-02              84.393           2.025e-03             336.134           3.998e+00     
-171.000         -90.000            1.749e-02           1.535e-02              89.955           2.141e-03             330.062           3.207e+00     
-170.000         -90.000            7.503e-03           5.275e-03             105.418           2.229e-03             324.187           3.181e+00     
-169.000         -90.000            4.021e-03           1.752e-03             163.993           2.269e-03             318.471           4.456e+00     
-168.000         -90.000            8.158e-03           5.909e-03             217.525           2.249e-03             312.836           1.637e+00     
-167.000         -90.000            1.860e-02           1.644e-02             231.638           2.162e-03             307.176           2.875e+00     
-166.000         -90.000            3.205e-02           3.004e-02             237.117           2.011e-03             301.365           4.348e+00     
-165.000         -90.000            4.429e-02           4.248e-02             240.124           1.808e-03             295.260           5.992e+00     
-164.000         -90.000            5.149e-02           4.992e-02             242.344           1.571e-03             288.692           7.910e+00     
-163.000         -90.000            5.146e-02           5.014e-02             244.573           1.322e-03             281.470           1.043e+01     
