Theta [deg.]  Phi   [deg.]  Abs(Dir.)[      ]   Abs(Theta)[      ]  Phase(Theta)[deg.]  Abs(Phi  )[      ]  Phase(Phi  )[deg.]  Ax.Ratio[      ]    
------------------------------------------------------------------------------------------------------------------------------------------------------
-180.000         -90.000            9.316e-03           5.097e-09              96.770           9.316e-03             258.970           3.162e+02     
-179.000         -90.000            1.384e-02           4.609e-03             265.947           9.229e-03             258.822           1.705e+01     
-178.000         -90.000            2.663e-02           1.765e-02             266.034           8.974e-03             258.379           1.582e+01     
-177.000         -90.000            4.542e-02           3.686e-02             266.162           8.562e-03             257.630           1.717e+01     
-176.000         -90.000            6.689e-02           5.888e-02             266.355           8.013e-03             256.553           1.804e+01     
-175.000         -90.000            8.726e-02           7.991e-02             266.637           7.353e-03             255.118           1.797e+01     
-174.000         -90.000            1.029e-01           9.631e-02             267.044           6.613e-03             253.276           1.708e+01     
-173.000         -90.000            1.111e-01           1.053e-01             267.631           5.825e-03             250.963           1.558e+01     
-172.000         -90.000            1.105e-01           1.054e-01             268.482           5.026e-03             248.088           1.370e+01     
-171.000         -90.000            1.010e-01           9.676e-02             269.735           4.247e-03             244.526           1.161e+01     
-170.000         -90.000            8.445e-02           8.093e-02             271.638           3.521e-03             240.118           9.464e+00     
-169.000         -90.000            6.366e-02           6.079e-02             274.656           2.873e-03             234.653           7.358e+00     
-168.000         -90.000            4.228e-02           3.995e-02             279.792           2.324e-03             227.887           5.389e+00     
-167.000         -90.000            2.402e-02           2.213e-02             289.518           1.890e-03             219.592           3.683e+00     
-166.000         -90.000            1.209e-02           1.051e-02             310.517           1.576e-03             209.685           2.646e+00     
-165.000         -90.000            8.613e-03           7.229e-03             351.336           1.384e-03             198.414           5.809e+00     
-164.000         -90.000            1.431e-02           1.300e-02              27.427           1.308e-03             186.497           9.610e+00     
-163.000         -90.000            2.838e-02           2.704e-02              44.578           1.334e-03             174.949           6.035e+00     
