Theta [deg.]  Phi   [deg.]  Abs(Dir.)[      ]   Abs(Theta)[      ]  Phase(Theta)[deg.]  Abs(Phi  )[      ]  Phase(Phi  )[deg.]  Ax.Ratio[      ]    
------------------------------------------------------------------------------------------------------------------------------------------------------
-180.000         -90.000            1.493e-03           3.133e-07              19.010           1.492e-03              97.956           7.032e+01     
-179.000         -90.000            5.370e-03           3.875e-03             134.213           1.495e-03              97.134           3.407e+00     
-178.000         -90.000            1.588e-02           1.437e-02             134.542           1.506e-03              94.741           5.136e+00     
-177.000         -90.000            2.982e-02           2.829e-02             134.798           1.533e-03              90.931           6.379e+00     
-176.000         -90.000            4.296e-02           4.138e-02             135.135           1.581e-03              85.965           6.874e+00     
-175.000         -90.000            5.135e-02           4.970e-02             135.642           1.658e-03              80.185           6.720e+00     
-174.000         -90.000            5.251e-02           5.075e-02             136.450           1.766e-03              73.968           6.091e+00     
-173.000         -90.000            4.620e-02           4.430e-02             137.796           1.901e-03              67.652           5.160e+00     
-172.000         -90.000            3.446e-02           3.241e-02             140.193           2.052e-03              61.485           4.063e+00     
-171.000         -90.000            2.096e-02           1.875e-02             144.984           2.203e-03              55.603           2.918e+00     
-170.000         -90.000            9.865e-03           7.532e-03             156.890           2.333e-03              50.046           1.945e+00     
-169.000         -90.000            4.578e-03           2.158e-03             198.772           2.421e-03              44.790           4.336e+00     
-168.000         -90.000            6.686e-03           4.239e-03             263.483           2.447e-03              39.768           2.623e+00     
-167.000         -90.000            1.552e-02           1.312e-02             283.816           2.402e-03              34.893           2.575e+00     
-166.000         -90.000            2.838e-02           2.610e-02             291.036           2.282e-03              30.063           3.432e+00     
-165.000         -90.000            4.140e-02           3.930e-02             294.718           2.094e-03              25.174           4.332e+00     
-164.000         -90.000            5.067e-02           4.882e-02             297.211           1.853e-03              20.104           5.176e+00     
-163.000         -90.000            5.347e-02           5.190e-02             299.462           1.579e-03              14.717           5.940e+00     
