Theta [deg.]  Phi   [deg.]  Abs(Dir.)[      ]   Abs(Theta)[      ]  Phase(Theta)[deg.]  Abs(Phi  )[      ]  Phase(Phi  )[deg.]  Ax.Ratio[      ]    
------------------------------------------------------------------------------------------------------------------------------------------------------
-180.000         -90.000            1.843e-04           2.132e-07             172.652           1.840e-04             355.395           3.162e+02     
-179.000         -90.000            5.280e-03           5.093e-03              47.122           1.872e-04             357.460           6.951e+00     
-178.000         -90.000            1.868e-02           1.848e-02              47.143           1.975e-04               3.194           1.401e+01     
-177.000         -90.000            3.524e-02           3.502e-02              47.424           2.246e-04              11.514           2.138e+01     
-176.000         -90.000            4.863e-02           4.835e-02              47.969           2.820e-04              20.494           2.851e+01     
-175.000         -90.000            5.380e-02           5.342e-02              48.912           3.844e-04              28.176           3.350e+01     
-174.000         -90.000            4.891e-02           4.837e-02              50.550           5.455e-04              33.561           3.256e+01     
-173.000         -90.000            3.606e-02           3.528e-02              53.575           7.754e-04              36.534           2.348e+01     
-172.000         -90.000            2.045e-02           1.937e-02              59.955           1.080e-03              37.503           1.162e+01     
-171.000         -90.000            8.363e-03           6.905e-03              77.490           1.458e-03              36.921           3.789e+00     
-170.000         -90.000            4.767e-03           2.863e-03             136.140           1.904e-03              35.188           1.325e+00     
-169.000         -90.000            1.139e-02           8.990e-03             184.575           2.405e-03              32.625           5.012e+00     
-168.000         -90.000            2.610e-02           2.317e-02             198.766           2.939e-03              29.481           1.696e+01     
-167.000         -90.000            4.372e-02           4.024e-02             204.749           3.479e-03              25.956           1.754e+02     
-166.000         -90.000            5.798e-02           5.400e-02             208.379           3.988e-03              22.203           3.670e+01     
-165.000         -90.000            6.391e-02           5.949e-02             211.454           4.421e-03              18.337           1.731e+01     
-164.000         -90.000            5.964e-02           5.491e-02             215.014           4.733e-03              14.438           1.043e+01     
-163.000         -90.000            4.712e-02           4.224e-02             220.291           4.882e-03              10.560           6.462e+00     
