Theta [deg.]  Phi   [deg.]  Abs(Dir.)[      ]   Abs(Theta)[      ]  Phase(Theta)[deg.]  Abs(Phi  )[      ]  Phase(Phi  )[deg.]  Ax.Ratio[      ]    
------------------------------------------------------------------------------------------------------------------------------------------------------
-180.000         -90.000            2.406e-03           1.042e-06              88.911           2.405e-03              45.120           6.943e+01     
-179.000         -90.000            1.083e-02           8.438e-03             325.340           2.390e-03              43.873           1.946e+00     
-178.000         -90.000            3.145e-02           2.910e-02             325.413           2.357e-03              39.917           3.668e+00     
-177.000         -90.000            5.245e-02           5.013e-02             326.005           2.319e-03              33.435           5.071e+00     
-176.000         -90.000            6.184e-02           5.955e-02             327.221           2.288e-03              24.725           6.118e+00     
-175.000         -90.000            5.446e-02           5.218e-02             329.589           2.278e-03              14.154           6.975e+00     
-174.000         -90.000            3.488e-02           3.258e-02             334.668           2.297e-03               2.091           8.638e+00     
-173.000         -90.000            1.478e-02           1.243e-02             348.694           2.353e-03             348.904           3.162e+02     
-172.000         -90.000            6.206e-03           3.751e-03              44.271           2.455e-03             334.983           1.535e+00     
-171.000         -90.000            1.465e-02           1.203e-02             102.482           2.611e-03             320.797           3.962e+00     
-170.000         -90.000            3.593e-02           3.312e-02             117.552           2.815e-03             306.860           2.297e+01     
-169.000         -90.000            5.863e-02           5.560e-02             123.492           3.032e-03             293.622           2.631e+01     
-168.000         -90.000            7.049e-02           6.729e-02             127.193           3.201e-03             281.335           1.092e+01     
-167.000         -90.000            6.528e-02           6.204e-02             130.812           3.238e-03             270.013           6.904e+00     
-166.000         -90.000            4.607e-02           4.300e-02             136.202           3.072e-03             259.475           4.576e+00     
-165.000         -90.000            2.336e-02           2.069e-02             147.637           2.673e-03             249.395           2.859e+00     
-164.000         -90.000            9.096e-03           7.017e-03             181.591           2.080e-03             239.277           2.401e+00     
-163.000         -90.000            1.013e-02           8.740e-03             243.197           1.394e-03             228.314           1.121e+01     
