Theta [deg.]  Phi   [deg.]  Abs(Dir.)[      ]   Abs(Theta)[      ]  Phase(Theta)[deg.]  Abs(Phi  )[      ]  Phase(Phi  )[deg.]  Ax.Ratio[      ]    
------------------------------------------------------------------------------------------------------------------------------------------------------
-180.000         -90.000            1.558e-03           2.183e-06             264.257           1.555e-03             246.877           8.948e+01     
-179.000         -90.000            8.539e-03           7.001e-03              82.730           1.538e-03             245.278           8.560e+00     
-178.000         -90.000            2.611e-02           2.462e-02              83.089           1.487e-03             240.277           1.104e+01     
-177.000         -90.000            4.466e-02           4.323e-02              83.769           1.430e-03             232.145           1.074e+01     
-176.000         -90.000            5.412e-02           5.272e-02              84.992           1.399e-03             221.515           9.048e+00     
-175.000         -90.000            4.948e-02           4.808e-02              87.246           1.408e-03             209.366           6.957e+00     
-174.000         -90.000            3.360e-02           3.215e-02              91.827           1.448e-03             196.665           4.890e+00     
-173.000         -90.000            1.551e-02           1.403e-02             103.353           1.486e-03             183.971           3.124e+00     
-172.000         -90.000            5.495e-03           4.009e-03             145.071           1.486e-03             171.287           4.892e+00     
-171.000         -90.000            9.380e-03           7.954e-03             211.559           1.426e-03             158.202           3.154e+00     
-170.000         -90.000            2.541e-02           2.410e-02             231.950           1.310e-03             144.079           4.293e+00     
-169.000         -90.000            4.521e-02           4.404e-02             239.356           1.166e-03             128.268           6.611e+00     
-168.000         -90.000            5.837e-02           5.734e-02             243.602           1.037e-03             110.405           1.028e+01     
-167.000         -90.000            5.806e-02           5.710e-02             247.365           9.604e-04              90.831           1.964e+01     
-166.000         -90.000            4.466e-02           4.371e-02             252.440           9.476e-04              70.750           2.353e+02     
-165.000         -90.000            2.547e-02           2.449e-02             262.098           9.829e-04              51.578           1.012e+01     
-164.000         -90.000            1.081e-02           9.779e-03             286.950           1.028e-03              34.018           3.258e+00     
-163.000         -90.000            8.505e-03           7.465e-03             341.966           1.040e-03              17.920           4.999e+00     
