Theta [deg.]  Phi   [deg.]  Abs(Dir.)[      ]   Abs(Theta)[      ]  Phase(Theta)[deg.]  Abs(Phi  )[      ]  Phase(Phi  )[deg.]  Ax.Ratio[      ]    
------------------------------------------------------------------------------------------------------------------------------------------------------
-180.000         -90.000            1.910e-04           4.405e-07             260.739           1.906e-04             220.568           3.229e+01     
-179.000         -90.000            6.521e-03           6.324e-03             235.088           1.977e-04             219.314           2.141e+01     
-178.000         -90.000            2.264e-02           2.242e-02             235.158           2.177e-04             215.984           3.116e+01     
-177.000         -90.000            4.171e-02           4.146e-02             235.470           2.522e-04             210.988           3.109e+01     
-176.000         -90.000            5.567e-02           5.537e-02             236.063           3.033e-04             204.789           2.613e+01     
-175.000         -90.000            5.868e-02           5.830e-02             237.117           3.733e-04             197.763           1.978e+01     
-174.000         -90.000            4.959e-02           4.913e-02             239.035           4.646e-04             190.193           1.371e+01     
-173.000         -90.000            3.248e-02           3.190e-02             242.862           5.794e-04             182.205           8.550e+00     
-172.000         -90.000            1.486e-02           1.414e-02             252.175           7.198e-04             173.946           4.537e+00     
-171.000         -90.000            4.528e-03           3.641e-03             286.019           8.872e-04             165.530           2.528e+00     
-170.000         -90.000            6.278e-03           5.197e-03               0.594           1.081e-03             157.069           6.481e+00     
-169.000         -90.000            1.988e-02           1.858e-02              24.763           1.297e-03             148.653           4.664e+00     
-168.000         -90.000            4.018e-02           3.866e-02              32.547           1.523e-03             140.324           5.311e+00     
-167.000         -90.000            5.926e-02           5.752e-02              36.519           1.745e-03             132.108           5.771e+00     
-166.000         -90.000            6.969e-02           6.775e-02              39.471           1.939e-03             123.953           5.940e+00     
-165.000         -90.000            6.755e-02           6.547e-02              42.615           2.082e-03             115.756           5.875e+00     
-164.000         -90.000            5.405e-02           5.189e-02              47.124           2.155e-03             107.360           5.713e+00     
-163.000         -90.000            3.495e-02           3.280e-02              55.198           2.147e-03              98.554           5.897e+00     
