Theta [deg.]  Phi   [deg.]  Abs(Dir.)[      ]   Abs(Theta)[      ]  Phase(Theta)[deg.]  Abs(Phi  )[      ]  Phase(Phi  )[deg.]  Ax.Ratio[      ]    
------------------------------------------------------------------------------------------------------------------------------------------------------
-180.000         -90.000            2.388e-04           2.178e-07             262.574           2.386e-04              66.119           1.170e+02     
-179.000         -90.000            4.979e-03           4.741e-03             104.293           2.379e-04              68.063           7.804e+00     
-178.000         -90.000            1.754e-02           1.731e-02             104.398           2.372e-04              73.731           1.692e+01     
-177.000         -90.000            3.326e-02           3.301e-02             104.711           2.474e-04              82.677           3.099e+01     
-176.000         -90.000            4.631e-02           4.603e-02             105.272           2.844e-04              93.436           6.239e+01     
-175.000         -90.000            5.191e-02           5.154e-02             106.215           3.657e-04             103.694           2.719e+02     
-174.000         -90.000            4.812e-02           4.761e-02             107.820           5.066e-04             111.668           1.460e+02     
-173.000         -90.000            3.655e-02           3.584e-02             110.714           7.183e-04             116.787           6.808e+01     
-172.000         -90.000            2.177e-02           2.076e-02             116.599           1.006e-03             119.404           9.732e+01     
-171.000         -90.000            9.555e-03           8.186e-03             131.650           1.369e-03             120.064           1.414e+01     
-170.000         -90.000            4.761e-03           2.962e-03             180.953           1.799e-03             119.267           1.781e+00     
-169.000         -90.000            9.510e-03           7.226e-03             235.762           2.284e-03             117.409           2.207e+00     
-168.000         -90.000            2.242e-02           1.961e-02             253.178           2.805e-03             114.798           4.319e+00     
-167.000         -90.000            3.911e-02           3.577e-02             260.142           3.339e-03             111.667           6.694e+00     
-166.000         -90.000            5.384e-02           4.998e-02             264.109           3.858e-03             108.216           9.386e+00     
-165.000         -90.000            6.160e-02           5.727e-02             267.215           4.327e-03             104.597           1.302e+01     
-164.000         -90.000            5.990e-02           5.519e-02             270.534           4.708e-03             100.932           2.054e+01     
-163.000         -90.000            4.968e-02           4.471e-02             275.138           4.962e-03              97.318           8.767e+01     
