Theta [deg.]  Phi   [deg.]  Abs(Dir.)[      ]   Abs(Theta)[      ]  Phase(Theta)[deg.]  Abs(Phi  )[      ]  Phase(Phi  )[deg.]  Ax.Ratio[      ]    
------------------------------------------------------------------------------------------------------------------------------------------------------
-180.000         -90.000            1.008e-04           2.374e-07              80.401           1.005e-04             297.946           3.382e+01     
-179.000         -90.000            5.601e-03           5.494e-03             349.932           1.070e-04             299.869           9.420e+00     
-178.000         -90.000            1.992e-02           1.979e-02             349.912           1.272e-04             304.725           1.764e+01     
-177.000         -90.000            3.737e-02           3.720e-02             350.177           1.678e-04             310.658           2.346e+01     
-176.000         -90.000            5.107e-02           5.083e-02             350.715           2.386e-04             315.831           2.560e+01     
-175.000         -90.000            5.567e-02           5.532e-02             351.667           3.505e-04             319.257           2.355e+01     
-174.000         -90.000            4.949e-02           4.898e-02             353.354           5.134e-04             320.793           1.828e+01     
-173.000         -90.000            3.521e-02           3.447e-02             356.552           7.354e-04             320.628           1.183e+01     
-172.000         -90.000            1.877e-02           1.774e-02               3.597           1.021e-03             319.129           6.130e+00     
-171.000         -90.000            6.990e-03           5.618e-03              24.757           1.372e-03             316.616           2.273e+00     
-170.000         -90.000            4.896e-03           3.115e-03              92.850           1.782e-03             313.358           2.849e+00     
-169.000         -90.000            1.372e-02           1.148e-02             132.667           2.239e-03             309.579           5.021e+01     
-168.000         -90.000            3.042e-02           2.770e-02             144.089           2.721e-03             305.446           1.087e+01     
-167.000         -90.000            4.892e-02           4.572e-02             149.210           3.199e-03             301.099           8.467e+00     
-166.000         -90.000            6.245e-02           5.882e-02             152.534           3.632e-03             296.630           7.146e+00     
-165.000         -90.000            6.617e-02           6.219e-02             155.585           3.975e-03             292.097           5.947e+00     
-164.000         -90.000            5.901e-02           5.483e-02             159.396           4.181e-03             287.522           4.743e+00     
-163.000         -90.000            4.406e-02           3.984e-02             165.414           4.216e-03             282.892           3.550e+00     
