Theta [deg.]  Phi   [deg.]  Abs(Dir.)[      ]   Abs(Theta)[      ]  Phase(Theta)[deg.]  Abs(Phi  )[      ]  Phase(Phi  )[deg.]  Ax.Ratio[      ]    
------------------------------------------------------------------------------------------------------------------------------------------------------
-180.000         -90.000            2.063e-03           7.683e-08             212.483           2.063e-03             189.100           3.162e+02     
-179.000         -90.000            4.876e-03           2.807e-03             233.992           2.069e-03             189.105           2.461e+00     
-178.000         -90.000            1.249e-02           1.040e-02             234.168           2.088e-03             189.053           3.497e+00     
-177.000         -90.000            2.281e-02           2.069e-02             234.408           2.117e-03             188.918           4.615e+00     
-176.000         -90.000            3.300e-02           3.085e-02             234.778           2.154e-03             188.669           5.434e+00     
-175.000         -90.000            4.030e-02           3.811e-02             235.346           2.194e-03             188.266           5.848e+00     
-174.000         -90.000            4.275e-02           4.052e-02             236.229           2.231e-03             187.670           5.827e+00     
-173.000         -90.000            3.975e-02           3.750e-02             237.630           2.257e-03             186.835           5.391e+00     
-172.000         -90.000            3.221e-02           2.995e-02             239.953           2.268e-03             185.748           4.602e+00     
-171.000         -90.000            2.228e-02           2.003e-02             244.124           2.256e-03             184.372           3.557e+00     
-170.000         -90.000            1.275e-02           1.053e-02             252.680           2.216e-03             182.688           2.390e+00     
-169.000         -90.000            6.257e-03           4.112e-03             274.423           2.145e-03             180.678           1.394e+00     
-168.000         -90.000            4.597e-03           2.555e-03             326.855           2.042e-03             178.328           3.575e+00     
-167.000         -90.000            8.214e-03           6.305e-03               6.145           1.909e-03             175.623           1.289e+01     
-166.000         -90.000            1.611e-02           1.436e-02              20.622           1.750e-03             172.546           6.678e+00     
-165.000         -90.000            2.613e-02           2.456e-02              27.194           1.571e-03             169.080           6.665e+00     
-164.000         -90.000            3.558e-02           3.420e-02              31.021           1.381e-03             165.194           7.077e+00     
-163.000         -90.000            4.194e-02           4.075e-02              33.827           1.188e-03             160.853           7.416e+00     
