Theta [deg.]  Phi   [deg.]  Abs(Dir.)[      ]   Abs(Theta)[      ]  Phase(Theta)[deg.]  Abs(Phi  )[      ]  Phase(Phi  )[deg.]  Ax.Ratio[      ]    
------------------------------------------------------------------------------------------------------------------------------------------------------
-180.000         -90.000            1.990e-02           9.262e-09             315.071           1.990e-02             295.892           3.162e+02     
-179.000         -90.000            2.718e-02           7.615e-03             359.129           1.956e-02             295.502           1.980e+00     
-178.000         -90.000            4.656e-02           2.800e-02             359.247           1.856e-02             294.319           1.648e+00     
-177.000         -90.000            7.165e-02           5.463e-02             359.437           1.702e-02             292.312           2.067e+00     
-176.000         -90.000            9.407e-02           7.899e-02             359.757           1.508e-02             289.434           2.493e+00     
-175.000         -90.000            1.062e-01           9.329e-02               0.290           1.295e-02             285.624           2.814e+00     
-174.000         -90.000            1.038e-01           9.301e-02               1.190           1.080e-02             280.817           2.988e+00     
-173.000         -90.000            8.708e-02           7.830e-02               2.764           8.775e-03             274.955           2.990e+00     
-172.000         -90.000            6.099e-02           5.402e-02               5.727           6.980e-03             268.026           2.815e+00     
-171.000         -90.000            3.361e-02           2.816e-02              12.163           5.456e-03             260.071           2.532e+00     
-170.000         -90.000            1.358e-02           9.377e-03              30.784           4.202e-03             251.213           3.003e+00     
-169.000         -90.000            7.429e-03           4.251e-03              94.319           3.178e-03             241.625           3.452e+00     
-168.000         -90.000            1.755e-02           1.521e-02             139.238           2.335e-03             231.456           2.555e+00     
-167.000         -90.000            4.139e-02           3.976e-02             151.701           1.630e-03             220.667           5.320e+00     
-166.000         -90.000            7.224e-02           7.120e-02             156.772           1.041e-03             208.744           1.056e+01     
-165.000         -90.000            1.012e-01           1.007e-01             159.577           5.742e-04             193.963           2.353e+01     
-164.000         -90.000            1.200e-01           1.197e-01             161.622           2.568e-04             170.786           1.359e+02     
-163.000         -90.000            1.232e-01           1.231e-01             163.631           1.270e-04             124.841           4.972e+01     
