Theta [deg.]  Phi   [deg.]  Abs(Dir.)[      ]   Abs(Theta)[      ]  Phase(Theta)[deg.]  Abs(Phi  )[      ]  Phase(Phi  )[deg.]  Ax.Ratio[      ]    
------------------------------------------------------------------------------------------------------------------------------------------------------
-180.000         -90.000            1.230e-02           1.286e-08             278.752           1.230e-02              24.607           3.162e+02     
-179.000         -90.000            1.965e-02           7.578e-03             306.685           1.208e-02              24.271           1.378e+00     
-178.000         -90.000            3.977e-02           2.834e-02             306.797           1.143e-02              23.264           1.676e+00     
-177.000         -90.000            6.741e-02           5.700e-02             306.976           1.041e-02              21.548           2.464e+00     
-176.000         -90.000            9.536e-02           8.623e-02             307.261           9.126e-03              19.047           3.273e+00     
-175.000         -90.000            1.163e-01           1.087e-01             307.703           7.675e-03              15.646           4.103e+00     
-174.000         -90.000            1.248e-01           1.186e-01             308.384           6.183e-03              11.163           4.982e+00     
-173.000         -90.000            1.185e-01           1.138e-01             309.450           4.760e-03               5.319           5.986e+00     
-172.000         -90.000            9.898e-02           9.548e-02             311.170           3.501e-03             357.667           7.328e+00     
-171.000         -90.000            7.106e-02           6.859e-02             314.131           2.471e-03             347.555           9.808e+00     
-170.000         -90.000            4.181e-02           4.010e-02             319.792           1.706e-03             334.044           2.048e+01     
-169.000         -90.000            1.859e-02           1.738e-02             332.861           1.215e-03             316.216           1.406e+01     
-168.000         -90.000            7.267e-03           6.290e-03              10.995           9.771e-04             294.322           2.633e+00     
-167.000         -90.000            1.073e-02           9.776e-03              68.056           9.575e-04             271.109           8.846e+00     
-166.000         -90.000            2.824e-02           2.713e-02              91.128           1.109e-03             250.129           1.430e+01     
-165.000         -90.000            5.564e-02           5.426e-02             100.113           1.383e-03             232.729           8.613e+00     
-164.000         -90.000            8.647e-02           8.473e-02             104.863           1.732e-03             218.331           7.651e+00     
-163.000         -90.000            1.136e-01           1.114e-01             108.104           2.117e-03             205.975           7.327e+00     
