Theta [deg.]  Phi   [deg.]  Abs(Dir.)[      ]   Abs(Theta)[      ]  Phase(Theta)[deg.]  Abs(Phi  )[      ]  Phase(Phi  )[deg.]  Ax.Ratio[      ]    
------------------------------------------------------------------------------------------------------------------------------------------------------
-180.000         -90.000            1.135e-02           1.300e-08             337.274           1.135e-02             112.661           3.162e+02     
-179.000         -90.000            1.815e-02           6.995e-03               7.670           1.115e-02             112.308           1.419e+00     
-178.000         -90.000            3.681e-02           2.623e-02               7.805           1.058e-02             111.249           1.675e+00     
-177.000         -90.000            6.267e-02           5.299e-02               8.022           9.682e-03             109.448           2.408e+00     
-176.000         -90.000            8.928e-02           8.074e-02               8.360           8.535e-03             106.836           3.118e+00     
-175.000         -90.000            1.100e-01           1.027e-01               8.871           7.235e-03             103.303           3.781e+00     
-174.000         -90.000            1.196e-01           1.137e-01               9.642           5.886e-03              98.677           4.396e+00     
-173.000         -90.000            1.157e-01           1.111e-01              10.817           4.586e-03              92.683           4.977e+00     
-172.000         -90.000            9.926e-02           9.584e-02              12.660           3.420e-03              84.884           5.578e+00     
-171.000         -90.000            7.424e-02           7.178e-02              15.714           2.452e-03              74.626           6.378e+00     
-170.000         -90.000            4.676e-02           4.504e-02              21.240           1.723e-03              60.951           8.185e+00     
-169.000         -90.000            2.353e-02           2.228e-02              32.801           1.254e-03              42.913           2.532e+01     
-168.000         -90.000            1.022e-02           9.180e-03              61.756           1.039e-03              20.814           4.842e+00     
-167.000         -90.000            1.009e-02           9.033e-03             113.377           1.060e-03             357.620           3.321e+00     
-166.000         -90.000            2.328e-02           2.200e-02             143.197           1.282e-03             337.052           1.825e+01     
-165.000         -90.000            4.677e-02           4.510e-02             155.367           1.663e-03             320.403           2.086e+01     
-164.000         -90.000            7.521e-02           7.305e-02             161.579           2.155e-03             307.003           1.047e+01     
-163.000         -90.000            1.022e-01           9.948e-02             165.580           2.708e-03             295.843           8.035e+00     
